## w(eV)         sigma(Sm^-1)     kappa(W(mK)^-1)        L12/e(Am^-1)      L22/e^2(Wm^-1)
    0.01              531798             802.372        -1.07564e+07         2.93575e+08
    0.03              531794             802.362        -1.07564e+07         2.93574e+08
    0.05              531785             802.343        -1.07563e+07         2.93571e+08
    0.07              531773             802.313        -1.07561e+07         2.93567e+08
    0.09              531756             802.274        -1.07559e+07         2.93562e+08
    0.11              531735             802.225        -1.07556e+07         2.93555e+08
    0.13              531710             802.166        -1.07553e+07         2.93546e+08
    0.15              531681             802.097        -1.07549e+07         2.93537e+08
    0.17              531647             802.018        -1.07545e+07         2.93525e+08
    0.19              531609              801.93         -1.0754e+07         2.93513e+08
    0.21              531567             801.832        -1.07535e+07         2.93499e+08
    0.23              531521             801.724        -1.07529e+07         2.93484e+08
    0.25              531471             801.606        -1.07522e+07         2.93467e+08
    0.27              531417             801.478        -1.07515e+07         2.93449e+08
    0.29              531358             801.341        -1.07508e+07          2.9343e+08
    0.31              531295             801.194          -1.075e+07         2.93409e+08
    0.33              531228             801.037        -1.07491e+07         2.93386e+08
    0.35              531157              800.87        -1.07482e+07         2.93363e+08
    0.37              531082             800.694        -1.07472e+07         2.93338e+08
    0.39              531002             800.507        -1.07462e+07         2.93311e+08
    0.41              530919             800.311        -1.07451e+07         2.93284e+08
    0.43              530831             800.106         -1.0744e+07         2.93254e+08
    0.45              530739              799.89        -1.07428e+07         2.93224e+08
    0.47              530642             799.665        -1.07416e+07         2.93192e+08
    0.49              530542              799.43        -1.07403e+07         2.93158e+08
    0.51              530437             799.185        -1.07389e+07         2.93124e+08
    0.53              530329             798.931        -1.07375e+07         2.93087e+08
    0.55              530216             798.667        -1.07361e+07          2.9305e+08
    0.57              530099             798.393        -1.07346e+07         2.93011e+08
    0.59              529977              798.11         -1.0733e+07          2.9297e+08
    0.61              529852             797.817        -1.07314e+07         2.92929e+08
    0.63              529722             797.514        -1.07297e+07         2.92886e+08
    0.65              529588             797.202         -1.0728e+07         2.92841e+08
    0.67              529450              796.88        -1.07262e+07         2.92795e+08
    0.69              529308             796.548        -1.07244e+07         2.92748e+08
    0.71              529162             796.207        -1.07225e+07         2.92699e+08
    0.73              529012             795.857        -1.07206e+07         2.92649e+08
    0.75              528857             795.496        -1.07186e+07         2.92597e+08
    0.77              528698             795.127        -1.07165e+07         2.92544e+08
    0.79              528535             794.747        -1.07144e+07          2.9249e+08
    0.81              528368             794.359        -1.07122e+07         2.92434e+08
    0.83              528197              793.96          -1.071e+07         2.92377e+08
    0.85              528022             793.552        -1.07078e+07         2.92318e+08
    0.87              527842             793.135        -1.07054e+07         2.92258e+08
    0.89              527658             792.709        -1.07031e+07         2.92197e+08
    0.91              527470             792.272        -1.07006e+07         2.92134e+08
    0.93              527278             791.827        -1.06981e+07          2.9207e+08
    0.95              527082             791.372        -1.06956e+07         2.92004e+08
    0.97              526882             790.908         -1.0693e+07         2.91937e+08
    0.99              526678             790.434        -1.06903e+07         2.91869e+08
    1.01              526469             789.951        -1.06876e+07         2.91799e+08
    1.03              526256             789.459        -1.06849e+07         2.91728e+08
    1.05              526039             788.957         -1.0682e+07         2.91655e+08
    1.07              525818             788.446        -1.06792e+07         2.91581e+08
    1.09              525593             787.926        -1.06762e+07         2.91505e+08
    1.11              525364             787.397        -1.06732e+07         2.91429e+08
    1.13              525131             786.858        -1.06702e+07          2.9135e+08
    1.15              524893              786.31        -1.06671e+07          2.9127e+08
    1.17              524652             785.753        -1.06639e+07         2.91189e+08
    1.19              524406             785.187        -1.06607e+07         2.91107e+08
    1.21              524156             784.612        -1.06575e+07         2.91023e+08
    1.23              523902             784.028        -1.06541e+07         2.90937e+08
    1.25              523644             783.434        -1.06508e+07          2.9085e+08
    1.27              523382             782.832        -1.06473e+07         2.90762e+08
    1.29              523116              782.22        -1.06438e+07         2.90672e+08
    1.31              522845               781.6        -1.06403e+07         2.90581e+08
    1.33              522571              780.97        -1.06367e+07         2.90489e+08
    1.35              522292             780.332         -1.0633e+07         2.90395e+08
    1.37              522009             779.684        -1.06293e+07         2.90299e+08
    1.39              521723             779.028        -1.06256e+07         2.90202e+08
    1.41              521432             778.363        -1.06217e+07         2.90104e+08
    1.43              521137             777.689        -1.06178e+07         2.90004e+08
    1.45              520838             777.006        -1.06139e+07         2.89903e+08
    1.47              520535             776.314        -1.06099e+07         2.89801e+08
    1.49              520227             775.614        -1.06058e+07         2.89697e+08
    1.51              519916             774.905        -1.06017e+07         2.89591e+08
    1.53              519601             774.187        -1.05976e+07         2.89484e+08
    1.55              519281              773.46        -1.05933e+07         2.89376e+08
    1.57              518958             772.725        -1.05891e+07         2.89266e+08
    1.59              518630             771.981        -1.05847e+07         2.89155e+08
    1.61              518299             771.229        -1.05803e+07         2.89042e+08
    1.63              517963             770.468        -1.05759e+07         2.88928e+08
    1.65              517623             769.698        -1.05713e+07         2.88813e+08
    1.67              517279              768.92        -1.05668e+07         2.88696e+08
    1.69              516931             768.134        -1.05621e+07         2.88577e+08
    1.71              516580             767.339        -1.05575e+07         2.88457e+08
    1.73              516224             766.535        -1.05527e+07         2.88336e+08
    1.75              515864             765.724        -1.05479e+07         2.88213e+08
    1.77              515500             764.903         -1.0543e+07         2.88089e+08
    1.79              515132             764.075        -1.05381e+07         2.87963e+08
    1.81              514760             763.238        -1.05332e+07         2.87836e+08
    1.83              514384             762.393        -1.05281e+07         2.87707e+08
    1.85              514004              761.54         -1.0523e+07         2.87577e+08
    1.87              513620             760.678        -1.05179e+07         2.87445e+08
    1.89              513231             759.809        -1.05127e+07         2.87312e+08
    1.91              512839             758.931        -1.05074e+07         2.87178e+08
    1.93              512443             758.045        -1.05021e+07         2.87042e+08
    1.95              512043             757.151        -1.04967e+07         2.86904e+08
    1.97              511639             756.249        -1.04912e+07         2.86765e+08
    1.99              511231             755.339        -1.04857e+07         2.86625e+08
    2.01              510819             754.421        -1.04802e+07         2.86483e+08
    2.03              510403             753.495        -1.04745e+07          2.8634e+08
    2.05              509983             752.562        -1.04688e+07         2.86195e+08
    2.07              509559              751.62        -1.04631e+07         2.86048e+08
    2.09              509131             750.671        -1.04573e+07         2.85901e+08
    2.11              508699             749.714        -1.04514e+07         2.85751e+08
    2.13              508263             748.749        -1.04455e+07         2.85601e+08
    2.15              507823             747.776        -1.04395e+07         2.85448e+08
    2.17              507380             746.796        -1.04335e+07         2.85294e+08
    2.19              506932             745.808        -1.04274e+07         2.85139e+08
    2.21              506480             744.812        -1.04212e+07         2.84983e+08
    2.23              506025             743.809         -1.0415e+07         2.84824e+08
    2.25              505565             742.799        -1.04087e+07         2.84665e+08
    2.27              505102              741.78        -1.04024e+07         2.84503e+08
    2.29              504634             740.755         -1.0396e+07         2.84341e+08
    2.31              504163             739.722        -1.03895e+07         2.84176e+08
    2.33              503688             738.682         -1.0383e+07         2.84011e+08
    2.35              503209             737.634        -1.03764e+07         2.83843e+08
    2.37              502726             736.579        -1.03697e+07         2.83675e+08
    2.39              502239             735.517         -1.0363e+07         2.83504e+08
    2.41              501748             734.447        -1.03563e+07         2.83333e+08
    2.43              501254              733.37        -1.03494e+07         2.83159e+08
    2.45              500755             732.287        -1.03425e+07         2.82984e+08
    2.47              500253             731.196        -1.03356e+07         2.82808e+08
    2.49              499747             730.098        -1.03286e+07          2.8263e+08
    2.51              499237             728.993        -1.03215e+07         2.82451e+08
    2.53              498723             727.881        -1.03143e+07          2.8227e+08
    2.55              498205             726.762        -1.03071e+07         2.82088e+08
    2.57              497683             725.636        -1.02999e+07         2.81904e+08
    2.59              497158             724.503        -1.02925e+07         2.81718e+08
    2.61              496629             723.364        -1.02852e+07         2.81531e+08
    2.63              496096             722.217        -1.02777e+07         2.81343e+08
    2.65              495559             721.064        -1.02702e+07         2.81153e+08
    2.67              495018             719.904        -1.02626e+07         2.80961e+08
    2.69              494473             718.738         -1.0255e+07         2.80768e+08
    2.71              493925             717.565        -1.02473e+07         2.80573e+08
    2.73              493373             716.385        -1.02395e+07         2.80377e+08
    2.75              492817             715.199        -1.02317e+07         2.80179e+08
    2.77              492257             714.006        -1.02238e+07          2.7998e+08
    2.79              491694             712.807        -1.02158e+07         2.79779e+08
    2.81              491127             711.602        -1.02078e+07         2.79577e+08
    2.83              490556              710.39        -1.01998e+07         2.79373e+08
    2.85              489981             709.171        -1.01916e+07         2.79167e+08
    2.87              489403             707.947        -1.01834e+07          2.7896e+08
    2.89              488820             706.716        -1.01751e+07         2.78752e+08
    2.91              488235             705.479        -1.01668e+07         2.78541e+08
    2.93              487645             704.236        -1.01584e+07          2.7833e+08
    2.95              487052             702.986        -1.01499e+07         2.78116e+08
    2.97              486454             701.731        -1.01414e+07         2.77901e+08
    2.99              485854              700.47        -1.01328e+07         2.77685e+08
    3.01              485249             699.202        -1.01242e+07         2.77467e+08
    3.03              484641             697.929        -1.01155e+07         2.77247e+08
    3.05              484029              696.65        -1.01067e+07         2.77026e+08
    3.07              483414             695.365        -1.00978e+07         2.76803e+08
    3.09              482795             694.074        -1.00889e+07         2.76579e+08
    3.11              482172             692.777          -1.008e+07         2.76353e+08
    3.13              481545             691.474        -1.00709e+07         2.76126e+08
    3.15              480915             690.166        -1.00618e+07         2.75896e+08
    3.17              480281             688.852        -1.00526e+07         2.75666e+08
    3.19              479644             687.533        -1.00434e+07         2.75434e+08
    3.21              479003             686.208        -1.00341e+07           2.752e+08
    3.23              478359             684.878        -1.00247e+07         2.74964e+08
    3.25              477710             683.542        -1.00153e+07         2.74727e+08
    3.27              477059               682.2        -1.00058e+07         2.74489e+08
    3.29              476403             680.854        -9.99626e+06         2.74248e+08
    3.31              475744             679.501        -9.98664e+06         2.74006e+08
    3.33              475082             678.144        -9.97695e+06         2.73763e+08
    3.35              474416             676.781        -9.96719e+06         2.73518e+08
    3.37              473746             675.414        -9.95737e+06         2.73271e+08
    3.39              473073             674.041        -9.94748e+06         2.73023e+08
    3.41              472396             672.662        -9.93753e+06         2.72773e+08
    3.43              471716             671.279        -9.92751e+06         2.72522e+08
    3.45              471032             669.891        -9.91743e+06         2.72269e+08
    3.47              470345             668.498        -9.90728e+06         2.72014e+08
    3.49              469655             667.099        -9.89706e+06         2.71758e+08
    3.51              468960             665.696        -9.88678e+06           2.715e+08
    3.53              468263             664.288        -9.87643e+06          2.7124e+08
    3.55              467562             662.876        -9.86602e+06         2.70979e+08
    3.57              466857             661.458        -9.85554e+06         2.70716e+08
    3.59              466149             660.036        -9.84499e+06         2.70452e+08
    3.61              465437             658.609        -9.83438e+06         2.70185e+08
    3.63              464723             657.177         -9.8237e+06         2.69918e+08
    3.65              464004             655.741        -9.81295e+06         2.69648e+08
    3.67              463283               654.3        -9.80214e+06         2.69377e+08
    3.69              462557             652.855        -9.79126e+06         2.69105e+08
    3.71              461829             651.405        -9.78031e+06          2.6883e+08
    3.73              461097             649.951         -9.7693e+06         2.68555e+08
    3.75              460362             648.493        -9.75822e+06         2.68277e+08
    3.77              459623              647.03        -9.74707e+06         2.67998e+08
    3.79              458881             645.563        -9.73586e+06         2.67717e+08
    3.81              458136             644.092        -9.72458e+06         2.67434e+08
    3.83              457387             642.616        -9.71324e+06          2.6715e+08
    3.85              456635             641.136        -9.70182e+06         2.66865e+08
    3.87              455880             639.653        -9.69034e+06         2.66577e+08
    3.89              455121             638.165        -9.67879e+06         2.66288e+08
    3.91              454360             636.673        -9.66718e+06         2.65997e+08
    3.93              453594             635.177         -9.6555e+06         2.65705e+08
    3.95              452826             633.678        -9.64375e+06         2.65411e+08
    3.97              452054             632.174        -9.63193e+06         2.65115e+08
    3.99              451280             630.666        -9.62005e+06         2.64818e+08
    4.01              450502             629.155         -9.6081e+06         2.64519e+08
    4.03              449720              627.64        -9.59608e+06         2.64218e+08
    4.05              448936             626.121        -9.58399e+06         2.63916e+08
    4.07              448148             624.599        -9.57184e+06         2.63612e+08
    4.09              447357             623.073        -9.55962e+06         2.63306e+08
    4.11              446563             621.544        -9.54734e+06         2.62999e+08
    4.13              445766              620.01        -9.53498e+06         2.62689e+08
    4.15              444965             618.474        -9.52256e+06         2.62379e+08
    4.17              444162             616.934        -9.51007e+06         2.62066e+08
    4.19              443355              615.39        -9.49752e+06         2.61752e+08
    4.21              442546             613.844        -9.48489e+06         2.61437e+08
    4.23              441733             612.293         -9.4722e+06         2.61119e+08
    4.25              440917              610.74        -9.45944e+06           2.608e+08
    4.27              440098             609.183        -9.44662e+06         2.60479e+08
    4.29              439276             607.624        -9.43373e+06         2.60157e+08
    4.31              438451             606.061        -9.42077e+06         2.59833e+08
    4.33              437623             604.495        -9.40774e+06         2.59507e+08
    4.35              436792             602.926        -9.39465e+06          2.5918e+08
    4.37              435957             601.354        -9.38148e+06          2.5885e+08
    4.39              435120             599.779        -9.36826e+06          2.5852e+08
    4.41              434280             598.201        -9.35496e+06         2.58187e+08
    4.43              433437              596.62         -9.3416e+06         2.57853e+08
    4.45              432591             595.036        -9.32817e+06         2.57517e+08
    4.47              431742              593.45        -9.31467e+06         2.57179e+08
    4.49              430890              591.86         -9.3011e+06          2.5684e+08
    4.51              430035             590.269        -9.28747e+06         2.56499e+08
    4.53              429178             588.674        -9.27377e+06         2.56157e+08
    4.55              428317             587.077        -9.26001e+06         2.55812e+08
    4.57              427454             585.477        -9.24618e+06         2.55466e+08
    4.59              426587             583.875        -9.23228e+06         2.55119e+08
    4.61              425718              582.27        -9.21831e+06         2.54769e+08
    4.63              424846             580.663        -9.20428e+06         2.54418e+08
    4.65              423971             579.053        -9.19018e+06         2.54065e+08
    4.67              423093             577.441        -9.17601e+06         2.53711e+08
    4.69              422213             575.827        -9.16178e+06         2.53355e+08
    4.71              421330              574.21        -9.14748e+06         2.52997e+08
    4.73              420444             572.591        -9.13311e+06         2.52638e+08
    4.75              419555              570.97        -9.11868e+06         2.52276e+08
    4.77              418664             569.347        -9.10418e+06         2.51913e+08
    4.79              417770             567.721        -9.08962e+06         2.51549e+08
    4.81              416873             566.094        -9.07499e+06         2.51183e+08
    4.83              415973             564.465        -9.06029e+06         2.50815e+08
    4.85              415071             562.833        -9.04553e+06         2.50445e+08
    4.87              414166               561.2         -9.0307e+06         2.50074e+08
    4.89              413259             559.565         -9.0158e+06         2.49701e+08
    4.91              412349             557.927        -9.00084e+06         2.49326e+08
    4.93              411436             556.288        -8.98581e+06          2.4895e+08
    4.95              410521             554.648        -8.97072e+06         2.48572e+08
    4.97              409603             553.005        -8.95557e+06         2.48192e+08
    4.99              408683             551.361        -8.94034e+06         2.47811e+08
    5.01              407760             549.715        -8.92505e+06         2.47428e+08
    5.03              406834             548.068         -8.9097e+06         2.47043e+08
    5.05              405906             546.419        -8.89428e+06         2.46657e+08
    5.07              404976             544.768         -8.8788e+06         2.46268e+08
    5.09              404043             543.116        -8.86325e+06         2.45879e+08
    5.11              403108             541.463        -8.84764e+06         2.45487e+08
    5.13              402170             539.808        -8.83196e+06         2.45094e+08
    5.15              401230             538.151        -8.81622e+06         2.44699e+08
    5.17              400287             536.494        -8.80042e+06         2.44303e+08
    5.19              399342             534.835        -8.78455e+06         2.43905e+08
    5.21              398394             533.174        -8.76861e+06         2.43505e+08
    5.23              397445             531.513        -8.75262e+06         2.43104e+08
    5.25              396493             529.851        -8.73655e+06           2.427e+08
    5.27              395538             528.187        -8.72043e+06         2.42296e+08
    5.29              394582             526.522        -8.70424e+06         2.41889e+08
    5.31              393623             524.856        -8.68799e+06         2.41481e+08
    5.33              392661             523.189        -8.67168e+06         2.41072e+08
    5.35              391698             521.521         -8.6553e+06          2.4066e+08
    5.37              390732             519.853        -8.63886e+06         2.40247e+08
    5.39              389764             518.183        -8.62236e+06         2.39832e+08
    5.41              388794             516.512        -8.60579e+06         2.39416e+08
    5.43              387822             514.841        -8.58917e+06         2.38998e+08
    5.45              386847             513.169        -8.57248e+06         2.38579e+08
    5.47              385871             511.496        -8.55573e+06         2.38157e+08
    5.49              384892             509.822        -8.53892e+06         2.37735e+08
    5.51              383911             508.148        -8.52204e+06          2.3731e+08
    5.53              382928             506.473        -8.50511e+06         2.36884e+08
    5.55              381944             504.798        -8.48811e+06         2.36456e+08
    5.57              380957             503.122        -8.47106e+06         2.36027e+08
    5.59              379968             501.445        -8.45394e+06         2.35596e+08
    5.61              378977             499.768        -8.43676e+06         2.35163e+08
    5.63              377984             498.091        -8.41953e+06         2.34729e+08
    5.65              376989             496.413        -8.40223e+06         2.34293e+08
    5.67              375992             494.735        -8.38487e+06         2.33856e+08
    5.69              374993             493.056        -8.36746e+06         2.33417e+08
    5.71              373992             491.377        -8.34998e+06         2.32976e+08
    5.73              372990             489.698        -8.33245e+06         2.32534e+08
    5.75              371985             488.019        -8.31486e+06          2.3209e+08
    5.77              370979             486.339         -8.2972e+06         2.31645e+08
    5.79              369971              484.66        -8.27949e+06         2.31198e+08
    5.81              368961              482.98        -8.26173e+06         2.30749e+08
    5.83              367949               481.3         -8.2439e+06         2.30299e+08
    5.85              366936             479.621        -8.22602e+06         2.29848e+08
    5.87              365921             477.941        -8.20808e+06         2.29395e+08
    5.89              364904             476.261        -8.19008e+06          2.2894e+08
    5.91              363885             474.581        -8.17203e+06         2.28483e+08
    5.93              362865             472.902        -8.15392e+06         2.28026e+08
    5.95              361843             471.223        -8.13576e+06         2.27566e+08
    5.97              360819             469.543        -8.11754e+06         2.27105e+08
    5.99              359794             467.864        -8.09926e+06         2.26643e+08
    6.01              358768             466.186        -8.08093e+06         2.26179e+08
    6.03              357739             464.507        -8.06254e+06         2.25713e+08
    6.05              356709             462.829         -8.0441e+06         2.25246e+08
    6.07              355678             461.152        -8.02561e+06         2.24778e+08
    6.09              354645             459.474        -8.00706e+06         2.24308e+08
    6.11              353611             457.798        -7.98845e+06         2.23836e+08
    6.13              352575             456.121         -7.9698e+06         2.23363e+08
    6.15              351538             454.445        -7.95109e+06         2.22889e+08
    6.17              350499              452.77        -7.93233e+06         2.22413e+08
    6.19              349459             451.095        -7.91351e+06         2.21935e+08
    6.21              348417             449.421        -7.89465e+06         2.21456e+08
    6.23              347375             447.748        -7.87573e+06         2.20976e+08
    6.25              346331             446.075        -7.85676e+06         2.20494e+08
    6.27              345285             444.403        -7.83774e+06         2.20011e+08
    6.29              344239             442.732        -7.81867e+06         2.19526e+08
    6.31              343191             441.062        -7.79955e+06          2.1904e+08
    6.33              342141             439.392        -7.78038e+06         2.18552e+08
    6.35              341091             437.723        -7.76116e+06         2.18063e+08
    6.37              340040             436.055        -7.74189e+06         2.17573e+08
    6.39              338987             434.388        -7.72257e+06         2.17081e+08
    6.41              337933             432.722        -7.70321e+06         2.16588e+08
    6.43              336878             431.057        -7.68379e+06         2.16093e+08
    6.45              335822             429.393        -7.66433e+06         2.15597e+08
    6.47              334765             427.731        -7.64482e+06           2.151e+08
    6.49              333707             426.069        -7.62527e+06         2.14601e+08
    6.51              332648             424.408        -7.60566e+06         2.14101e+08
    6.53              331587             422.749        -7.58602e+06           2.136e+08
    6.55              330526              421.09        -7.56632e+06         2.13097e+08
    6.57              329464             419.433        -7.54658e+06         2.12593e+08
    6.59              328401             417.777         -7.5268e+06         2.12088e+08
    6.61              327337             416.123        -7.50697e+06         2.11581e+08
    6.63              326272              414.47         -7.4871e+06         2.11073e+08
    6.65              325207             412.818        -7.46718e+06         2.10564e+08
    6.67              324140             411.167        -7.44722e+06         2.10053e+08
    6.69              323073             409.518        -7.42722e+06         2.09541e+08
    6.71              322005             407.871        -7.40718e+06         2.09028e+08
    6.73              320936             406.225        -7.38709e+06         2.08514e+08
    6.75              319867              404.58        -7.36696e+06         2.07998e+08
    6.77              318797             402.937         -7.3468e+06         2.07481e+08
    6.79              317726             401.296        -7.32659e+06         2.06963e+08
    6.81              316654             399.656        -7.30634e+06         2.06444e+08
    6.83              315582             398.018        -7.28605e+06         2.05923e+08
    6.85              314509             396.382        -7.26572e+06         2.05401e+08
    6.87              313436             394.747        -7.24536e+06         2.04878e+08
    6.89              312362             393.114        -7.22495e+06         2.04354e+08
    6.91              311288             391.483        -7.20451e+06         2.03829e+08
    6.93              310213             389.854        -7.18403e+06         2.03302e+08
    6.95              309138             388.226        -7.16352e+06         2.02775e+08
    6.97              308062               386.6        -7.14297e+06         2.02246e+08
    6.99              306986             384.977        -7.12238e+06         2.01716e+08
    7.01              305909             383.355        -7.10175e+06         2.01185e+08
    7.03              304832             381.735         -7.0811e+06         2.00653e+08
    7.05              303755             380.117         -7.0604e+06          2.0012e+08
    7.07              302677             378.501        -7.03968e+06         1.99585e+08
    7.09              301599             376.888        -7.01892e+06          1.9905e+08
    7.11              300521             375.276        -6.99813e+06         1.98514e+08
    7.13              299443             373.666         -6.9773e+06         1.97976e+08
    7.15              298364             372.059        -6.95645e+06         1.97438e+08
    7.17              297285             370.454        -6.93556e+06         1.96898e+08
    7.19              296206             368.851        -6.91464e+06         1.96358e+08
    7.21              295127              367.25         -6.8937e+06         1.95816e+08
    7.23              294048             365.651        -6.87272e+06         1.95274e+08
    7.25              292969             364.055        -6.85171e+06          1.9473e+08
    7.27              291890             362.461        -6.83068e+06         1.94186e+08
    7.29              290810              360.87        -6.80961e+06          1.9364e+08
    7.31              289731             359.281        -6.78852e+06         1.93094e+08
    7.33              288652             357.694        -6.76741e+06         1.92546e+08
    7.35              287572              356.11        -6.74626e+06         1.91998e+08
    7.37              286493             354.528        -6.72509e+06         1.91449e+08
    7.39              285414             352.948         -6.7039e+06         1.90899e+08
    7.41              284335             351.372        -6.68268e+06         1.90348e+08
    7.43              283256             349.797        -6.66143e+06         1.89796e+08
    7.45              282178             348.226        -6.64017e+06         1.89244e+08
    7.47              281099             346.657        -6.61888e+06          1.8869e+08
    7.49              280021              345.09        -6.59756e+06         1.88136e+08
    7.51              278944             343.527        -6.57623e+06         1.87581e+08
    7.53              277866             341.966        -6.55487e+06         1.87025e+08
    7.55              276789             340.407         -6.5335e+06         1.86468e+08
    7.57              275712             338.852         -6.5121e+06         1.85911e+08
    7.59              274635             337.299        -6.49068e+06         1.85353e+08
    7.61              273559             335.749        -6.46925e+06         1.84794e+08
    7.63              272484             334.202        -6.44779e+06         1.84234e+08
    7.65              271408             332.658        -6.42632e+06         1.83674e+08
    7.67              270334             331.117        -6.40483e+06         1.83113e+08
    7.69              269259             329.578        -6.38333e+06         1.82551e+08
    7.71              268186             328.043        -6.36181e+06         1.81989e+08
    7.73              267113             326.511        -6.34027e+06         1.81426e+08
    7.75              266040             324.981        -6.31872e+06         1.80862e+08
    7.77              264968             323.455        -6.29715e+06         1.80298e+08
    7.79              263897             321.931        -6.27557e+06         1.79733e+08
    7.81              262827             320.411        -6.25398e+06         1.79167e+08
    7.83              261757             318.894        -6.23237e+06         1.78601e+08
    7.85              260688              317.38        -6.21076e+06         1.78034e+08
    7.87              259619             315.869        -6.18913e+06         1.77467e+08
    7.89              258552             314.362        -6.16749e+06         1.76899e+08
    7.91              257485             312.857        -6.14584e+06         1.76331e+08
    7.93              256419             311.356        -6.12418e+06         1.75762e+08
    7.95              255354             309.858        -6.10252e+06         1.75193e+08
    7.97              254290             308.364        -6.08084e+06         1.74623e+08
    7.99              253227             306.872        -6.05916e+06         1.74053e+08
    8.01              252164             305.384        -6.03747e+06         1.73483e+08
    8.03              251103               303.9        -6.01578e+06         1.72912e+08
    8.05              250043             302.419        -5.99408e+06          1.7234e+08
    8.07              248984             300.941        -5.97237e+06         1.71768e+08
    8.09              247925             299.467        -5.95066e+06         1.71196e+08
    8.11              246868             297.996        -5.92895e+06         1.70623e+08
    8.13              245812             296.529        -5.90723e+06          1.7005e+08
    8.15              244757             295.065        -5.88551e+06         1.69477e+08
    8.17              243704             293.605        -5.86379e+06         1.68904e+08
    8.19              242651             292.148        -5.84207e+06          1.6833e+08
    8.21              241600             290.695        -5.82035e+06         1.67756e+08
    8.23              240550             289.246        -5.79863e+06         1.67181e+08
    8.25              239501               287.8        -5.77691e+06         1.66607e+08
    8.27              238454             286.358        -5.75519e+06         1.66032e+08
    8.29              237407              284.92        -5.73347e+06         1.65457e+08
    8.31              236363             283.485        -5.71176e+06         1.64881e+08
    8.33              235319             282.054        -5.69005e+06         1.64306e+08
    8.35              234277             280.627        -5.66834e+06          1.6373e+08
    8.37              233237             279.204        -5.64664e+06         1.63154e+08
    8.39              232197             277.784        -5.62494e+06         1.62578e+08
    8.41              231160             276.369        -5.60325e+06         1.62002e+08
    8.43              230124             274.957        -5.58157e+06         1.61426e+08
    8.45              229089             273.549        -5.55989e+06          1.6085e+08
    8.47              228056             272.145        -5.53822e+06         1.60274e+08
    8.49              227025             270.745        -5.51656e+06         1.59698e+08
    8.51              225995             269.349        -5.49491e+06         1.59121e+08
    8.53              224967             267.957        -5.47327e+06         1.58545e+08
    8.55              223940             266.568        -5.45164e+06         1.57969e+08
    8.57              222915             265.184        -5.43002e+06         1.57392e+08
    8.59              221892             263.804        -5.40842e+06         1.56816e+08
    8.61              220871             262.428        -5.38682e+06          1.5624e+08
    8.63              219851             261.056        -5.36524e+06         1.55664e+08
    8.65              218833             259.689        -5.34367e+06         1.55088e+08
    8.67              217817             258.325        -5.32212e+06         1.54512e+08
    8.69              216803             256.965        -5.30058e+06         1.53936e+08
    8.71              215791              255.61        -5.27906e+06          1.5336e+08
    8.73              214781             254.259        -5.25756e+06         1.52785e+08
    8.75              213772             252.912        -5.23607e+06          1.5221e+08
    8.77              212766             251.569         -5.2146e+06         1.51635e+08
    8.79              211761             250.231        -5.19315e+06          1.5106e+08
    8.81              210759             248.897        -5.17171e+06         1.50485e+08
    8.83              209758             247.567         -5.1503e+06         1.49911e+08
    8.85              208760             246.242        -5.12891e+06         1.49337e+08
    8.87              207763              244.92        -5.10754e+06         1.48763e+08
    8.89              206769             243.604        -5.08619e+06         1.48189e+08
    8.91              205777             242.291        -5.06486e+06         1.47616e+08
    8.93              204787             240.983        -5.04356e+06         1.47043e+08
    8.95              203799              239.68        -5.02227e+06         1.46471e+08
    8.97              202813              238.38        -5.00102e+06         1.45899e+08
    8.99              201830             237.086        -4.97979e+06         1.45327e+08
    9.01              200848             235.796        -4.95858e+06         1.44756e+08
    9.03              199869              234.51         -4.9374e+06         1.44185e+08
    9.05              198893             233.229        -4.91625e+06         1.43614e+08
    9.07              197918             231.952        -4.89512e+06         1.43045e+08
    9.09              196946              230.68        -4.87402e+06         1.42475e+08
    9.11              195977             229.412        -4.85295e+06         1.41906e+08
    9.13              195009             228.149        -4.83191e+06         1.41338e+08
    9.15              194044             226.891         -4.8109e+06          1.4077e+08
    9.17              193082             225.638        -4.78993e+06         1.40202e+08
    9.19              192122             224.388        -4.76898e+06         1.39636e+08
    9.21              191164             223.144        -4.74806e+06         1.39069e+08
    9.23              190209             221.904        -4.72718e+06         1.38504e+08
    9.25              189257              220.67        -4.70633e+06         1.37939e+08
    9.27              188307             219.439        -4.68551e+06         1.37375e+08
    9.29              187359             218.214        -4.66473e+06         1.36811e+08
    9.31              186414             216.993        -4.64398e+06         1.36248e+08
    9.33              185472             215.777        -4.62327e+06         1.35686e+08
    9.35              184532             214.566        -4.60259e+06         1.35124e+08
    9.37              183595             213.359        -4.58195e+06         1.34563e+08
    9.39              182661             212.158        -4.56135e+06         1.34003e+08
    9.41              181729             210.961        -4.54079e+06         1.33444e+08
    9.43              180800             209.769        -4.52026e+06         1.32885e+08
    9.45              179874             208.582        -4.49978e+06         1.32327e+08
    9.47              178950               207.4        -4.47933e+06          1.3177e+08
    9.49              178029             206.223        -4.45892e+06         1.31214e+08
    9.51              177111              205.05        -4.43856e+06         1.30659e+08
    9.53              176196             203.883        -4.41824e+06         1.30104e+08
    9.55              175284             202.721        -4.39795e+06         1.29551e+08
    9.57              174374             201.563        -4.37772e+06         1.28998e+08
    9.59              173468             200.411        -4.35752e+06         1.28447e+08
    9.61              172564             199.263        -4.33737e+06         1.27896e+08
    9.63              171663             198.121        -4.31726e+06         1.27346e+08
    9.65              170765             196.983         -4.2972e+06         1.26797e+08
    9.67              169870             195.851        -4.27718e+06         1.26249e+08
    9.69              168978             194.723        -4.25721e+06         1.25702e+08
    9.71              168089             193.601        -4.23729e+06         1.25156e+08
    9.73              167203             192.484        -4.21741e+06         1.24611e+08
    9.75              166320             191.371        -4.19758e+06         1.24068e+08
    9.77              165440             190.264         -4.1778e+06         1.23525e+08
    9.79              164563             189.162        -4.15807e+06         1.22983e+08
    9.81              163689             188.065        -4.13838e+06         1.22443e+08
    9.83              162818             186.974        -4.11875e+06         1.21903e+08
    9.85              161950             185.887        -4.09917e+06         1.21365e+08
    9.87              161086             184.806        -4.07964e+06         1.20828e+08
    9.89              160224             183.729        -4.06016e+06         1.20292e+08
    9.91              159366             182.658        -4.04073e+06         1.19757e+08
    9.93              158510             181.592        -4.02135e+06         1.19223e+08
    9.95              157658             180.532        -4.00203e+06          1.1869e+08
    9.97              156810             179.476        -3.98276e+06         1.18159e+08
    9.99              155964             178.426        -3.96355e+06         1.17629e+08
   10.01              155122             177.381        -3.94439e+06           1.171e+08
   10.03              154282             176.341        -3.92528e+06         1.16573e+08
   10.05              153447             175.307        -3.90623e+06         1.16047e+08
   10.07              152614             174.278        -3.88724e+06         1.15522e+08
   10.09              151785             173.254         -3.8683e+06         1.14998e+08
   10.11              150958             172.235        -3.84942e+06         1.14476e+08
   10.13              150136             171.222        -3.83059e+06         1.13955e+08
   10.15              149316             170.214        -3.81183e+06         1.13435e+08
   10.17              148500             169.211        -3.79312e+06         1.12917e+08
   10.19              147688             168.214        -3.77447e+06           1.124e+08
   10.21              146878             167.222        -3.75588e+06         1.11885e+08
   10.23              146072             166.235        -3.73736e+06         1.11371e+08
   10.25              145270             165.254        -3.71889e+06         1.10858e+08
   10.27              144470             164.278        -3.70048e+06         1.10347e+08
   10.29              143675             163.308        -3.68213e+06         1.09837e+08
   10.31              142882             162.342        -3.66384e+06         1.09329e+08
   10.33              142094             161.383        -3.64562e+06         1.08822e+08
   10.35              141308             160.428        -3.62746e+06         1.08317e+08
   10.37              140526             159.479        -3.60936e+06         1.07813e+08
   10.39              139748             158.536        -3.59132e+06         1.07311e+08
   10.41              138973             157.597        -3.57335e+06          1.0681e+08
   10.43              138201             156.665        -3.55544e+06         1.06311e+08
   10.45              137433             155.737         -3.5376e+06         1.05813e+08
   10.47              136669             154.815        -3.51982e+06         1.05317e+08
   10.49              135908             153.899         -3.5021e+06         1.04822e+08
   10.51              135150             152.988        -3.48445e+06         1.04329e+08
   10.53              134396             152.082        -3.46687e+06         1.03838e+08
   10.55              133646             151.182        -3.44935e+06         1.03348e+08
   10.57              132899             150.288         -3.4319e+06          1.0286e+08
   10.59              132156             149.399        -3.41452e+06         1.02374e+08
   10.61              131417             148.515         -3.3972e+06         1.01889e+08
   10.63              130681             147.637        -3.37996e+06         1.01406e+08
   10.65              129948             146.764        -3.36278e+06         1.00925e+08
   10.67              129219             145.897        -3.34566e+06         1.00445e+08
   10.69              128494             145.035        -3.32862e+06         9.99669e+07
   10.71              127773             144.179        -3.31164e+06         9.94905e+07
   10.73              127055             143.328        -3.29474e+06         9.90159e+07
   10.75              126340             142.482         -3.2779e+06          9.8543e+07
   10.77              125630             141.643        -3.26114e+06         9.80719e+07
   10.79              124923             140.808        -3.24444e+06         9.76025e+07
   10.81              124219              139.98        -3.22782e+06         9.71348e+07
   10.83              123520             139.156        -3.21126e+06          9.6669e+07
   10.85              122824             138.339        -3.19478e+06         9.62049e+07
   10.87              122131             137.526        -3.17837e+06         9.57426e+07
   10.89              121443              136.72        -3.16203e+06         9.52821e+07
   10.91              120758             135.918        -3.14576e+06         9.48234e+07
   10.93              120076             135.123        -3.12956e+06         9.43665e+07
   10.95              119399             134.333        -3.11344e+06         9.39115e+07
   10.97              118725             133.548        -3.09739e+06         9.34583e+07
   10.99              118055             132.769        -3.08141e+06         9.30069e+07
   11.01              117388             131.995         -3.0655e+06         9.25574e+07
   11.03              116726             131.227        -3.04967e+06         9.21098e+07
   11.05              116066             130.464        -3.03391e+06          9.1664e+07
   11.07              115411             129.707        -3.01823e+06         9.12201e+07
   11.09              114760             128.956        -3.00262e+06         9.07781e+07
   11.11              114112             128.209        -2.98708e+06          9.0338e+07
   11.13              113467             127.469        -2.97162e+06         8.98998e+07
   11.15              112827             126.734        -2.95623e+06         8.94635e+07
   11.17              112190             126.004        -2.94092e+06         8.90291e+07
   11.19              111557              125.28        -2.92568e+06         8.85966e+07
   11.21              110928             124.562        -2.91052e+06         8.81661e+07
   11.23              110303             123.849        -2.89544e+06         8.77375e+07
   11.25              109681             123.141        -2.88042e+06         8.73109e+07
   11.27              109063             122.439        -2.86549e+06         8.68862e+07
   11.29              108448             121.742        -2.85063e+06         8.64634e+07
   11.31              107838             121.051        -2.83585e+06         8.60427e+07
   11.33              107231             120.366        -2.82114e+06         8.56239e+07
   11.35              106628             119.686        -2.80651e+06          8.5207e+07
   11.37              106028             119.011        -2.79195e+06         8.47922e+07
   11.39              105433             118.342        -2.77747e+06         8.43793e+07
   11.41              104841             117.678        -2.76307e+06         8.39685e+07
   11.43              104253              117.02        -2.74875e+06         8.35596e+07
   11.45              103668             116.367         -2.7345e+06         8.31527e+07
   11.47              103088              115.72        -2.72033e+06         8.27479e+07
   11.49              102511             115.078        -2.70624e+06          8.2345e+07
   11.51              101937             114.441        -2.69222e+06         8.19442e+07
   11.53              101368              113.81        -2.67828e+06         8.15454e+07
   11.55              100802             113.185        -2.66442e+06         8.11486e+07
   11.57              100240             112.564        -2.65063e+06         8.07539e+07
   11.59             99681.6              111.95        -2.63693e+06         8.03612e+07
   11.61             99126.9              111.34         -2.6233e+06         7.99705e+07
   11.63               98576             110.736        -2.60974e+06         7.95818e+07
   11.65             98028.8             110.138        -2.59627e+06         7.91952e+07
   11.67             97485.2             109.544        -2.58287e+06         7.88107e+07
   11.69             96945.4             108.956        -2.56955e+06         7.84282e+07
   11.71             96409.3             108.374        -2.55631e+06         7.80477e+07
   11.73             95876.8             107.797        -2.54315e+06         7.76693e+07
   11.75             95348.1             107.225        -2.53006e+06          7.7293e+07
   11.77               94823             106.658        -2.51706e+06         7.69187e+07
   11.79             94301.6             106.097        -2.50413e+06         7.65465e+07
   11.81             93783.9             105.541        -2.49127e+06         7.61763e+07
   11.83             93269.8             104.991         -2.4785e+06         7.58083e+07
   11.85             92759.4             104.445         -2.4658e+06         7.54422e+07
   11.87             92252.7             103.905        -2.45318e+06         7.50783e+07
   11.89             91749.6             103.371        -2.44064e+06         7.47164e+07
   11.91             91250.1             102.841        -2.42818e+06         7.43566e+07
   11.93             90754.3             102.317        -2.41579e+06         7.39989e+07
   11.95             90262.1             101.798        -2.40349e+06         7.36432e+07
   11.97             89773.5             101.284        -2.39125e+06         7.32896e+07
   11.99             89288.5             100.776         -2.3791e+06         7.29381e+07
   12.01             88807.2             100.272        -2.36703e+06         7.25887e+07
   12.03             88329.4              99.774        -2.35503e+06         7.22413e+07
   12.05             87855.3              99.281        -2.34311e+06         7.18961e+07
   12.07             87384.7             98.7931        -2.33127e+06         7.15528e+07
   12.09             86917.7             98.3104         -2.3195e+06         7.12117e+07
   12.11             86454.3             97.8328        -2.30781e+06         7.08727e+07
   12.13             85994.4             97.3603         -2.2962e+06         7.05357e+07
   12.15             85538.1             96.8929        -2.28466e+06         7.02008e+07
   12.17             85085.3             96.4306        -2.27321e+06         6.98679e+07
   12.19             84636.1             95.9734        -2.26183e+06         6.95371e+07
   12.21             84190.3             95.5212        -2.25052e+06         6.92085e+07
   12.23             83748.1              95.074        -2.23929e+06         6.88818e+07
   12.25             83309.4             94.6319        -2.22814e+06         6.85573e+07
   12.27             82874.2             94.1948        -2.21707e+06         6.82348e+07
   12.29             82442.5             93.7626        -2.20607e+06         6.79143e+07
   12.31             82014.3             93.3354        -2.19515e+06         6.75959e+07
   12.33             81589.5             92.9132         -2.1843e+06         6.72796e+07
   12.35             81168.1              92.496        -2.17353e+06         6.69654e+07
   12.37             80750.2             92.0836        -2.16283e+06         6.66532e+07
   12.39             80335.8             91.6761        -2.15221e+06          6.6343e+07
   12.41             79924.8             91.2736        -2.14167e+06         6.60349e+07
   12.43             79517.1             90.8758         -2.1312e+06         6.57288e+07
   12.45             79112.9              90.483        -2.12081e+06         6.54248e+07
   12.47             78712.1             90.0949        -2.11049e+06         6.51229e+07
   12.49             78314.6             89.7117        -2.10024e+06         6.48229e+07
   12.51             77920.5             89.3333        -2.09007e+06          6.4525e+07
   12.53             77529.8             88.9596        -2.07998e+06         6.42291e+07
   12.55             77142.4             88.5906        -2.06995e+06         6.39353e+07
   12.57             76758.3             88.2264        -2.06001e+06         6.36434e+07
   12.59             76377.5              87.867        -2.05013e+06         6.33536e+07
   12.61               76000             87.5121        -2.04033e+06         6.30658e+07
   12.63             75625.9              87.162         -2.0306e+06           6.278e+07
   12.65               75255             86.8165        -2.02095e+06         6.24962e+07
   12.67             74887.3             86.4756        -2.01137e+06         6.22144e+07
   12.69               74523             86.1394        -2.00186e+06         6.19347e+07
   12.71             74161.8             85.8077        -1.99242e+06         6.16568e+07
   12.73             73803.9             85.4806        -1.98306e+06          6.1381e+07
   12.75             73449.2              85.158        -1.97376e+06         6.11072e+07
   12.77             73097.7             84.8399        -1.96454e+06         6.08353e+07
   12.79             72749.3             84.5263        -1.95539e+06         6.05654e+07
   12.81             72404.2             84.2171        -1.94631e+06         6.02975e+07
   12.83             72062.2             83.9125        -1.93731e+06         6.00315e+07
   12.85             71723.3             83.6122        -1.92837e+06         5.97675e+07
   12.87             71387.6             83.3163        -1.91951e+06         5.95054e+07
   12.89             71054.9             83.0248        -1.91071e+06         5.92453e+07
   12.91             70725.4             82.7376        -1.90198e+06         5.89871e+07
   12.93             70398.9             82.4548        -1.89333e+06         5.87308e+07
   12.95             70075.5             82.1763        -1.88474e+06         5.84764e+07
   12.97             69755.2              81.902        -1.87622e+06          5.8224e+07
   12.99             69437.9              81.632        -1.86777e+06         5.79735e+07
   13.01             69123.6             81.3662        -1.85939e+06         5.77248e+07
   13.03             68812.4             81.1046        -1.85108e+06         5.74781e+07
   13.05             68504.1             80.8471        -1.84284e+06         5.72332e+07
   13.07             68198.8             80.5938        -1.83466e+06         5.69903e+07
   13.09             67896.5             80.3447        -1.82655e+06         5.67492e+07
   13.11             67597.1             80.0996        -1.81851e+06         5.65099e+07
   13.13             67300.6             79.8585        -1.81053e+06         5.62726e+07
   13.15               67007             79.6216        -1.80263e+06          5.6037e+07
   13.17             66716.4             79.3886        -1.79478e+06         5.58034e+07
   13.19             66428.6             79.1596        -1.78701e+06         5.55715e+07
   13.21             66143.7             78.9345         -1.7793e+06         5.53415e+07
   13.23             65861.6             78.7134        -1.77165e+06         5.51133e+07
   13.25             65582.4             78.4962        -1.76407e+06         5.48869e+07
   13.27               65306             78.2828        -1.75655e+06         5.46624e+07
   13.29             65032.4             78.0733         -1.7491e+06         5.44396e+07
   13.31             64761.5             77.8676        -1.74171e+06         5.42186e+07
   13.33             64493.4             77.6657        -1.73439e+06         5.39994e+07
   13.35             64228.1             77.4676        -1.72713e+06         5.37819e+07
   13.37             63965.5             77.2731        -1.71993e+06         5.35663e+07
   13.39             63705.7             77.0824        -1.71279e+06         5.33523e+07
   13.41             63448.5             76.8954        -1.70572e+06         5.31402e+07
   13.43               63194             76.7119        -1.69871e+06         5.29297e+07
   13.45             62942.1             76.5321        -1.69176e+06          5.2721e+07
   13.47               62693             76.3559        -1.68487e+06          5.2514e+07
   13.49             62446.4             76.1832        -1.67804e+06         5.23087e+07
   13.51             62202.5              76.014        -1.67127e+06         5.21052e+07
   13.53             61961.1             75.8483        -1.66456e+06         5.19033e+07
   13.55             61722.3             75.6861        -1.65792e+06         5.17031e+07
   13.57             61486.1             75.5273        -1.65133e+06         5.15045e+07
   13.59             61252.4             75.3719         -1.6448e+06         5.13076e+07
   13.61             61021.3             75.2199        -1.63833e+06         5.11124e+07
   13.63             60792.7             75.0712        -1.63192e+06         5.09189e+07
   13.65             60566.5             74.9258        -1.62556e+06         5.07269e+07
   13.67             60342.8             74.7837        -1.61927e+06         5.05366e+07
   13.69             60121.6             74.6448        -1.61303e+06         5.03479e+07
   13.71             59902.8             74.5092        -1.60685e+06         5.01608e+07
   13.73             59686.5             74.3767        -1.60072e+06         4.99753e+07
   13.75             59472.5             74.2473        -1.59465e+06         4.97914e+07
   13.77             59260.9             74.1211        -1.58864e+06         4.96091e+07
   13.79             59051.7              73.998        -1.58268e+06         4.94283e+07
   13.81             58844.8             73.8779        -1.57678e+06         4.92491e+07
   13.83             58640.3             73.7609        -1.57093e+06         4.90715e+07
   13.85               58438             73.6468        -1.56513e+06         4.88954e+07
   13.87             58238.1             73.5357        -1.55939e+06         4.87208e+07
   13.89             58040.4             73.4275        -1.55371e+06         4.85477e+07
   13.91               57845             73.3222        -1.54807e+06         4.83761e+07
   13.93             57651.9             73.2198        -1.54249e+06         4.82061e+07
   13.95             57460.9             73.1202        -1.53696e+06         4.80375e+07
   13.97             57272.2             73.0234        -1.53149e+06         4.78704e+07
   13.99             57085.6             72.9293        -1.52606e+06         4.77047e+07
   14.01             56901.2              72.838        -1.52069e+06         4.75405e+07
   14.03               56719             72.7494        -1.51536e+06         4.73778e+07
   14.05             56538.9             72.6635        -1.51009e+06         4.72165e+07
   14.07             56360.9             72.5802        -1.50487e+06         4.70566e+07
   14.09               56185             72.4995         -1.4997e+06         4.68981e+07
   14.11             56011.1             72.4214        -1.49457e+06         4.67411e+07
   14.13             55839.4             72.3458         -1.4895e+06         4.65854e+07
   14.15             55669.7             72.2727        -1.48447e+06         4.64311e+07
   14.17             55501.9             72.2021        -1.47949e+06         4.62782e+07
   14.19             55336.2             72.1339        -1.47456e+06         4.61266e+07
   14.21             55172.5             72.0682        -1.46968e+06         4.59764e+07
   14.23             55010.8             72.0048        -1.46484e+06         4.58275e+07
   14.25               54851             71.9437        -1.46005e+06           4.568e+07
   14.27             54693.1              71.885        -1.45531e+06         4.55337e+07
   14.29             54537.2             71.8286        -1.45061e+06         4.53888e+07
   14.31             54383.1             71.7744        -1.44596e+06         4.52452e+07
   14.33             54230.9             71.7224        -1.44135e+06         4.51029e+07
   14.35             54080.6             71.6726        -1.43679e+06         4.49618e+07
   14.37             53932.1             71.6249        -1.43227e+06          4.4822e+07
   14.39             53785.5             71.5794         -1.4278e+06         4.46834e+07
   14.41             53640.6              71.536        -1.42337e+06         4.45461e+07
   14.43             53497.6             71.4946        -1.41898e+06         4.44101e+07
   14.45             53356.3             71.4552        -1.41463e+06         4.42752e+07
   14.47             53216.8             71.4178        -1.41033e+06         4.41416e+07
   14.49               53079             71.3824        -1.40607e+06         4.40092e+07
   14.51             52942.9             71.3489        -1.40185e+06         4.38779e+07
   14.53             52808.5             71.3173        -1.39767e+06         4.37478e+07
   14.55             52675.8             71.2876        -1.39353e+06         4.36189e+07
   14.57             52544.8             71.2597        -1.38943e+06         4.34912e+07
   14.59             52415.4             71.2336        -1.38538e+06         4.33646e+07
   14.61             52287.6             71.2093        -1.38136e+06         4.32391e+07
   14.63             52161.5             71.1867        -1.37738e+06         4.31148e+07
   14.65             52036.9             71.1658        -1.37344e+06         4.29916e+07
   14.67               51914             71.1466        -1.36954e+06         4.28695e+07
   14.69             51792.6              71.129        -1.36567e+06         4.27485e+07
   14.71             51672.7             71.1131        -1.36185e+06         4.26285e+07
   14.73             51554.4             71.0987        -1.35806e+06         4.25096e+07
   14.75             51437.5             71.0859        -1.35431e+06         4.23918e+07
   14.77             51322.2             71.0747        -1.35059e+06         4.22751e+07
   14.79             51208.3             71.0649        -1.34691e+06         4.21594e+07
   14.81             51095.9             71.0565        -1.34327e+06         4.20447e+07
   14.83             50984.9             71.0496        -1.33966e+06         4.19311e+07
   14.85             50875.4             71.0442        -1.33609e+06         4.18184e+07
   14.87             50767.3               71.04        -1.33255e+06         4.17068e+07
   14.89             50660.5             71.0373        -1.32904e+06         4.15961e+07
   14.91             50555.2             71.0358        -1.32557e+06         4.14864e+07
   14.93             50451.1             71.0356        -1.32214e+06         4.13777e+07
   14.95             50348.5             71.0367        -1.31873e+06           4.127e+07
   14.97             50247.1              71.039        -1.31536e+06         4.11631e+07
   14.99             50147.1             71.0425        -1.31203e+06         4.10573e+07
   15.01             50048.3             71.0472        -1.30872e+06         4.09523e+07
   15.03             49950.9              71.053        -1.30545e+06         4.08483e+07
   15.05             49854.7             71.0599         -1.3022e+06         4.07452e+07
   15.07             49759.7             71.0679        -1.29899e+06          4.0643e+07
   15.09             49665.9              71.077        -1.29581e+06         4.05417e+07
   15.11             49573.4              71.087        -1.29266e+06         4.04412e+07
   15.13             49482.1             71.0981        -1.28954e+06         4.03417e+07
   15.15             49391.9             71.1102        -1.28645e+06         4.02429e+07
   15.17             49302.9             71.1232        -1.28339e+06         4.01451e+07
   15.19             49215.1             71.1371        -1.28035e+06          4.0048e+07
   15.21             49128.4             71.1519        -1.27735e+06         3.99518e+07
   15.23             49042.8             71.1675        -1.27437e+06         3.98564e+07
   15.25             48958.3              71.184        -1.27143e+06         3.97619e+07
   15.27             48874.9             71.2014        -1.26851e+06         3.96681e+07
   15.29             48792.6             71.2194        -1.26561e+06         3.95751e+07
   15.31             48711.3             71.2383        -1.26275e+06         3.94829e+07
   15.33             48631.1             71.2579        -1.25991e+06         3.93915e+07
   15.35             48551.9             71.2781         -1.2571e+06         3.93008e+07
   15.37             48473.7             71.2991        -1.25431e+06         3.92109e+07
   15.39             48396.5             71.3207        -1.25155e+06         3.91218e+07
   15.41             48320.3              71.343        -1.24881e+06         3.90333e+07
   15.43               48245             71.3658         -1.2461e+06         3.89456e+07
   15.45             48170.7             71.3892        -1.24341e+06         3.88586e+07
   15.47             48097.4             71.4132        -1.24075e+06         3.87724e+07
   15.49               48025             71.4377        -1.23811e+06         3.86868e+07
   15.51             47953.4             71.4627         -1.2355e+06         3.86019e+07
   15.53             47882.8             71.4882        -1.23291e+06         3.85177e+07
   15.55             47813.1             71.5141        -1.23034e+06         3.84342e+07
   15.57             47744.2             71.5405         -1.2278e+06         3.83513e+07
   15.59             47676.2             71.5673        -1.22527e+06         3.82691e+07
   15.61             47609.1             71.5944        -1.22277e+06         3.81876e+07
   15.63             47542.7              71.622        -1.22029e+06         3.81066e+07
   15.65             47477.2             71.6498        -1.21784e+06         3.80263e+07
   15.67             47412.5              71.678         -1.2154e+06         3.79467e+07
   15.69             47348.5             71.7065        -1.21299e+06         3.78676e+07
   15.71             47285.4             71.7353        -1.21059e+06         3.77892e+07
   15.73               47223             71.7643        -1.20822e+06         3.77113e+07
   15.75             47161.3             71.7935        -1.20587e+06         3.76341e+07
   15.77             47100.4              71.823        -1.20354e+06         3.75574e+07
   15.79             47040.2             71.8526        -1.20122e+06         3.74813e+07
   15.81             46980.7             71.8824        -1.19893e+06         3.74058e+07
   15.83             46921.9             71.9123        -1.19665e+06         3.73308e+07
   15.85             46863.8             71.9424         -1.1944e+06         3.72564e+07
   15.87             46806.4             71.9725        -1.19216e+06         3.71825e+07
   15.89             46749.6             72.0028        -1.18994e+06         3.71092e+07
   15.91             46693.5             72.0331        -1.18774e+06         3.70363e+07
   15.93               46638             72.0634        -1.18556e+06          3.6964e+07
   15.95             46583.2             72.0938        -1.18339e+06         3.68923e+07
   15.97               46529             72.1242        -1.18124e+06          3.6821e+07
   15.99             46475.3             72.1545        -1.17911e+06         3.67502e+07
   16.01             46422.3             72.1848          -1.177e+06         3.66799e+07
   16.03             46369.8             72.2151         -1.1749e+06         3.66101e+07
   16.05             46317.9             72.2453        -1.17281e+06         3.65408e+07
   16.07             46266.5             72.2754        -1.17075e+06          3.6472e+07
   16.09             46215.7             72.3054         -1.1687e+06         3.64036e+07
   16.11             46165.5             72.3352        -1.16666e+06         3.63357e+07
   16.13             46115.7             72.3649        -1.16464e+06         3.62682e+07
   16.15             46066.5             72.3945        -1.16264e+06         3.62012e+07
   16.17             46017.7             72.4238        -1.16065e+06         3.61346e+07
   16.19             45969.5              72.453        -1.15868e+06         3.60684e+07
   16.21             45921.7              72.482        -1.15671e+06         3.60027e+07
   16.23             45874.4             72.5107        -1.15477e+06         3.59374e+07
   16.25             45827.6             72.5392        -1.15284e+06         3.58725e+07
   16.27             45781.2             72.5674        -1.15092e+06          3.5808e+07
   16.29             45735.2             72.5953        -1.14901e+06         3.57439e+07
   16.31             45689.7              72.623        -1.14712e+06         3.56802e+07
   16.33             45644.6             72.6503        -1.14524e+06         3.56169e+07
   16.35             45599.9             72.6773        -1.14338e+06          3.5554e+07
   16.37             45555.6              72.704        -1.14152e+06         3.54914e+07
   16.39             45511.7             72.7303        -1.13968e+06         3.54293e+07
   16.41             45468.2             72.7562        -1.13785e+06         3.53675e+07
   16.43             45425.1             72.7818        -1.13604e+06          3.5306e+07
   16.45             45382.3             72.8069        -1.13423e+06         3.52449e+07
   16.47             45339.8             72.8317        -1.13244e+06         3.51842e+07
   16.49             45297.7              72.856        -1.13066e+06         3.51238e+07
   16.51               45256             72.8799        -1.12889e+06         3.50638e+07
   16.53             45214.6             72.9033        -1.12713e+06          3.5004e+07
   16.55             45173.5             72.9262        -1.12538e+06         3.49446e+07
   16.57             45132.7             72.9487        -1.12365e+06         3.48856e+07
   16.59             45092.2             72.9707        -1.12192e+06         3.48268e+07
   16.61               45052             72.9921        -1.12021e+06         3.47684e+07
   16.63               45012             73.0131         -1.1185e+06         3.47103e+07
   16.65             44972.4             73.0335        -1.11681e+06         3.46525e+07
   16.67               44933             73.0534        -1.11512e+06          3.4595e+07
   16.69             44893.9             73.0727        -1.11345e+06         3.45378e+07
   16.71               44855             73.0915        -1.11178e+06         3.44809e+07
   16.73             44816.4             73.1096        -1.11013e+06         3.44242e+07
   16.75               44778             73.1272        -1.10848e+06         3.43679e+07
   16.77             44739.9             73.1442        -1.10684e+06         3.43118e+07
   16.79               44702             73.1606        -1.10521e+06         3.42561e+07
   16.81             44664.3             73.1764        -1.10359e+06         3.42005e+07
   16.83             44626.8             73.1915        -1.10198e+06         3.41453e+07
   16.85             44589.5              73.206        -1.10038e+06         3.40903e+07
   16.87             44552.4             73.2199        -1.09879e+06         3.40356e+07
   16.89             44515.4             73.2331         -1.0972e+06         3.39811e+07
   16.91             44478.7             73.2456        -1.09563e+06         3.39269e+07
   16.93             44442.1             73.2574        -1.09406e+06         3.38729e+07
   16.95             44405.7             73.2686         -1.0925e+06         3.38192e+07
   16.97             44369.5             73.2791        -1.09094e+06         3.37658e+07
   16.99             44333.4             73.2888         -1.0894e+06         3.37125e+07
   17.01             44297.5             73.2979        -1.08786e+06         3.36595e+07
   17.03             44261.7             73.3062        -1.08633e+06         3.36067e+07
   17.05             44226.1             73.3138        -1.08481e+06         3.35542e+07
   17.07             44190.6             73.3207        -1.08329e+06         3.35019e+07
   17.09             44155.2             73.3268        -1.08179e+06         3.34498e+07
   17.11             44119.9             73.3322        -1.08029e+06         3.33979e+07
   17.13             44084.8             73.3368        -1.07879e+06         3.33463e+07
   17.15             44049.7             73.3406         -1.0773e+06         3.32949e+07
   17.17             44014.8             73.3437        -1.07582e+06         3.32436e+07
   17.19             43979.9              73.346        -1.07435e+06         3.31926e+07
   17.21             43945.2             73.3475        -1.07288e+06         3.31418e+07
   17.23             43910.5             73.3482        -1.07142e+06         3.30912e+07
   17.25             43875.9             73.3481        -1.06997e+06         3.30408e+07
   17.27             43841.4             73.3472        -1.06852e+06         3.29906e+07
   17.29               43807             73.3456        -1.06707e+06         3.29406e+07
   17.31             43772.6             73.3431        -1.06564e+06         3.28908e+07
   17.33             43738.3             73.3397        -1.06421e+06         3.28412e+07
   17.35             43704.1             73.3356        -1.06278e+06         3.27917e+07
   17.37             43669.9             73.3306        -1.06136e+06         3.27425e+07
   17.39             43635.7             73.3248        -1.05995e+06         3.26935e+07
   17.41             43601.6             73.3181        -1.05854e+06         3.26446e+07
   17.43             43567.6             73.3107        -1.05714e+06         3.25959e+07
   17.45             43533.6             73.3023        -1.05575e+06         3.25474e+07
   17.47             43499.6             73.2931        -1.05436e+06         3.24991e+07
   17.49             43465.6             73.2831        -1.05297e+06         3.24509e+07
   17.51             43431.7             73.2722        -1.05159e+06         3.24029e+07
   17.53             43397.8             73.2604        -1.05022e+06         3.23551e+07
   17.55             43363.9             73.2478        -1.04885e+06         3.23075e+07
   17.57               43330             73.2343        -1.04748e+06           3.226e+07
   17.59             43296.2             73.2199        -1.04612e+06         3.22128e+07
   17.61             43262.3             73.2047        -1.04477e+06         3.21656e+07
   17.63             43228.5             73.1886        -1.04342e+06         3.21187e+07
   17.65             43194.6             73.1716        -1.04207e+06         3.20719e+07
   17.67             43160.8             73.1537        -1.04073e+06         3.20253e+07
   17.69             43126.9             73.1349         -1.0394e+06         3.19788e+07
   17.71             43093.1             73.1153        -1.03807e+06         3.19325e+07
   17.73             43059.2             73.0948        -1.03674e+06         3.18863e+07
   17.75             43025.3             73.0734        -1.03542e+06         3.18404e+07
   17.77             42991.4              73.051        -1.03411e+06         3.17945e+07
   17.79             42957.5             73.0279         -1.0328e+06         3.17489e+07
   17.81             42923.5             73.0038        -1.03149e+06         3.17034e+07
   17.83             42889.5             72.9788        -1.03019e+06          3.1658e+07
   17.85             42855.5             72.9529        -1.02889e+06         3.16128e+07
   17.87             42821.5             72.9261        -1.02759e+06         3.15677e+07
   17.89             42787.4             72.8985         -1.0263e+06         3.15229e+07
   17.91             42753.4             72.8699        -1.02502e+06         3.14781e+07
   17.93             42719.2             72.8404        -1.02374e+06         3.14335e+07
   17.95             42685.1             72.8101        -1.02246e+06         3.13891e+07
   17.97             42650.8             72.7788        -1.02119e+06         3.13448e+07
   17.99             42616.6             72.7467        -1.01992e+06         3.13007e+07
   18.01             42582.3             72.7137        -1.01866e+06         3.12567e+07
   18.03               42548             72.6797         -1.0174e+06         3.12128e+07
   18.05             42513.6             72.6449        -1.01614e+06         3.11691e+07
   18.07             42479.1             72.6092        -1.01489e+06         3.11256e+07
   18.09             42444.6             72.5726        -1.01364e+06         3.10822e+07
   18.11             42410.1             72.5351         -1.0124e+06          3.1039e+07
   18.13             42375.5             72.4967        -1.01116e+06         3.09959e+07
   18.15             42340.8             72.4574        -1.00992e+06         3.09529e+07
   18.17             42306.1             72.4172        -1.00869e+06         3.09101e+07
   18.19             42271.3             72.3762        -1.00746e+06         3.08675e+07
   18.21             42236.5             72.3343        -1.00624e+06          3.0825e+07
   18.23             42201.6             72.2914        -1.00502e+06         3.07826e+07
   18.25             42166.7             72.2478         -1.0038e+06         3.07404e+07
   18.27             42131.7             72.2032        -1.00259e+06         3.06983e+07
   18.29             42096.6             72.1577        -1.00138e+06         3.06564e+07
   18.31             42061.4             72.1114        -1.00018e+06         3.06147e+07
   18.33             42026.2             72.0642             -998981          3.0573e+07
   18.35             41990.9             72.0162             -997785         3.05316e+07
   18.37             41955.6             71.9672             -996593         3.04902e+07
   18.39             41920.2             71.9174             -995405         3.04491e+07
   18.41             41884.7             71.8668             -994220          3.0408e+07
   18.43             41849.1             71.8153             -993040         3.03671e+07
   18.45             41813.5             71.7629             -991863         3.03264e+07
   18.47             41777.8             71.7097             -990691         3.02858e+07
   18.49               41742             71.6557             -989522         3.02454e+07
   18.51             41706.2             71.6008             -988357         3.02051e+07
   18.53             41670.3              71.545             -987196          3.0165e+07
   18.55             41634.3             71.4885             -986039          3.0125e+07
   18.57             41598.2              71.431             -984886         3.00852e+07
   18.59             41562.1             71.3728             -983736         3.00455e+07
   18.61             41525.8             71.3137             -982591         3.00059e+07
   18.63             41489.6             71.2539             -981449         2.99666e+07
   18.65             41453.2             71.1932             -980311         2.99273e+07
   18.67             41416.8             71.1316             -979177         2.98882e+07
   18.69             41380.2             71.0693             -978047         2.98493e+07
   18.71             41343.7             71.0062             -976921         2.98106e+07
   18.73               41307             70.9423             -975799         2.97719e+07
   18.75             41270.3             70.8775             -974681         2.97335e+07
   18.77             41233.4              70.812             -973567         2.96952e+07
   18.79             41196.6             70.7457             -972456          2.9657e+07
   18.81             41159.6             70.6786             -971350          2.9619e+07
   18.83             41122.6             70.6108             -970247         2.95812e+07
   18.85             41085.4             70.5421             -969149         2.95435e+07
   18.87             41048.3             70.4727             -968054          2.9506e+07
   18.89               41011             70.4026             -966963         2.94686e+07
   18.91             40973.7             70.3316             -965877         2.94314e+07
   18.93             40936.3               70.26             -964794         2.93944e+07
   18.95             40898.8             70.1875             -963715         2.93575e+07
   18.97             40861.2             70.1144             -962640         2.93207e+07
   18.99             40823.6             70.0405             -961570         2.92842e+07
   19.01             40785.9             69.9658             -960503         2.92478e+07
   19.03             40748.1             69.8905             -959441         2.92115e+07
   19.05             40710.3             69.8144             -958382         2.91755e+07
   19.07             40672.4             69.7376             -957327         2.91395e+07
   19.09             40634.4             69.6601             -956277         2.91038e+07
   19.11             40596.3             69.5819             -955231         2.90682e+07
   19.13             40558.2              69.503             -954188         2.90328e+07
   19.15               40520             69.4234             -953150         2.89975e+07
   19.17             40481.8             69.3431             -952116         2.89625e+07
   19.19             40443.5             69.2621             -951086         2.89275e+07
   19.21             40405.1             69.1805             -950060         2.88928e+07
   19.23             40366.6             69.0981             -949039         2.88582e+07
   19.25             40328.1             69.0152             -948021         2.88238e+07
   19.27             40289.5             68.9315             -947008         2.87896e+07
   19.29             40250.9             68.8472             -945999         2.87555e+07
   19.31             40212.1             68.7623             -944994         2.87216e+07
   19.33             40173.4             68.6767             -943993         2.86879e+07
   19.35             40134.5             68.5905             -942997         2.86543e+07
   19.37             40095.6             68.5037             -942004         2.86209e+07
   19.39             40056.7             68.4162             -941016         2.85877e+07
   19.41             40017.6             68.3281             -940033         2.85547e+07
   19.43             39978.6             68.2394             -939053         2.85218e+07
   19.45             39939.4             68.1501             -938078         2.84891e+07
   19.47             39900.2             68.0602             -937107         2.84566e+07
   19.49               39861             67.9698             -936140         2.84243e+07
   19.51             39821.7             67.8787             -935178         2.83921e+07
   19.53             39782.3             67.7871             -934219         2.83602e+07
   19.55             39742.9             67.6948             -933266         2.83284e+07
   19.57             39703.4              67.602             -932316         2.82968e+07
   19.59             39663.9             67.5087             -931371         2.82653e+07
   19.61             39624.4             67.4148             -930430         2.82341e+07
   19.63             39584.7             67.3203             -929494          2.8203e+07
   19.65             39545.1             67.2254             -928561         2.81721e+07
   19.67             39505.3             67.1298             -927634         2.81413e+07
   19.69             39465.6             67.0338             -926710         2.81108e+07
   19.71             39425.8             66.9372             -925791         2.80805e+07
   19.73             39385.9             66.8401             -924876         2.80503e+07
   19.75               39346             66.7425             -923966         2.80203e+07
   19.77               39306             66.6444             -923060         2.79905e+07
   19.79               39266             66.5458             -922159         2.79608e+07
   19.81               39226             66.4467             -921262         2.79314e+07
   19.83             39185.9             66.3471             -920369         2.79021e+07
   19.85             39145.8              66.247             -919480         2.78731e+07
   19.87             39105.6             66.1465             -918596         2.78442e+07
   19.89             39065.4             66.0455             -917717         2.78155e+07
   19.91             39025.2              65.944             -916842         2.77869e+07
   19.93             38984.9             65.8421             -915971         2.77586e+07
   19.95             38944.6             65.7397             -915105         2.77304e+07
   19.97             38904.3             65.6369             -914243         2.77025e+07
   19.99             38863.9             65.5337             -913385         2.76747e+07
