## w(eV)         sigma(Sm^-1)     kappa(W(mK)^-1)        L12/e(Am^-1)      L22/e^2(Wm^-1)
    0.01              353938             584.571        -6.92778e+06         1.90978e+08
    0.03              353935             584.563        -6.92774e+06         1.90977e+08
    0.05              353929             584.549        -6.92768e+06         1.90976e+08
    0.07              353920             584.527        -6.92757e+06         1.90973e+08
    0.09              353908             584.498        -6.92744e+06         1.90969e+08
    0.11              353893             584.461        -6.92727e+06         1.90965e+08
    0.13              353875             584.417        -6.92706e+06          1.9096e+08
    0.15              353853             584.366        -6.92682e+06         1.90954e+08
    0.17              353829             584.308        -6.92655e+06         1.90947e+08
    0.19              353802             584.242        -6.92624e+06         1.90939e+08
    0.21              353772             584.169        -6.92589e+06          1.9093e+08
    0.23              353738             584.089        -6.92552e+06         1.90921e+08
    0.25              353702             584.002        -6.92511e+06          1.9091e+08
    0.27              353663             583.907        -6.92466e+06         1.90899e+08
    0.29              353620             583.805        -6.92418e+06         1.90887e+08
    0.31              353575             583.696        -6.92367e+06         1.90873e+08
    0.33              353526             583.579        -6.92312e+06         1.90859e+08
    0.35              353475             583.455        -6.92253e+06         1.90845e+08
    0.37              353421             583.324        -6.92192e+06         1.90829e+08
    0.39              353363             583.186        -6.92126e+06         1.90812e+08
    0.41              353303              583.04        -6.92058e+06         1.90795e+08
    0.43              353239             582.888        -6.91986e+06         1.90777e+08
    0.45              353173             582.728         -6.9191e+06         1.90757e+08
    0.47              353103              582.56        -6.91831e+06         1.90737e+08
    0.49              353030             582.386        -6.91749e+06         1.90716e+08
    0.51              352955             582.204        -6.91663e+06         1.90694e+08
    0.53              352876             582.015        -6.91574e+06         1.90672e+08
    0.55              352795             581.819        -6.91481e+06         1.90648e+08
    0.57              352710             581.616        -6.91385e+06         1.90624e+08
    0.59              352623             581.406        -6.91285e+06         1.90598e+08
    0.61              352532             581.188        -6.91182e+06         1.90572e+08
    0.63              352438             580.964        -6.91076e+06         1.90545e+08
    0.65              352342             580.732        -6.90966e+06         1.90517e+08
    0.67              352242             580.493        -6.90852e+06         1.90488e+08
    0.69              352139             580.247        -6.90735e+06         1.90459e+08
    0.71              352034             579.994        -6.90615e+06         1.90428e+08
    0.73              351925             579.733        -6.90491e+06         1.90397e+08
    0.75              351814             579.466        -6.90364e+06         1.90364e+08
    0.77              351699             579.191        -6.90233e+06         1.90331e+08
    0.79              351582              578.91        -6.90099e+06         1.90297e+08
    0.81              351461             578.621        -6.89961e+06         1.90262e+08
    0.83              351337             578.326         -6.8982e+06         1.90226e+08
    0.85              351211             578.023        -6.89675e+06         1.90189e+08
    0.87              351081             577.713        -6.89527e+06         1.90152e+08
    0.89              350949             577.397        -6.89375e+06         1.90113e+08
    0.91              350814             577.073         -6.8922e+06         1.90074e+08
    0.93              350675             576.742        -6.89061e+06         1.90034e+08
    0.95              350534             576.405        -6.88899e+06         1.89993e+08
    0.97              350389              576.06        -6.88733e+06         1.89951e+08
    0.99              350242             575.709        -6.88564e+06         1.89908e+08
    1.01              350092              575.35        -6.88391e+06         1.89864e+08
    1.03              349939             574.985        -6.88215e+06         1.89819e+08
    1.05              349783             574.613        -6.88036e+06         1.89774e+08
    1.07              349623             574.234        -6.87852e+06         1.89727e+08
    1.09              349461             573.848        -6.87666e+06          1.8968e+08
    1.11              349296             573.455        -6.87475e+06         1.89632e+08
    1.13              349128             573.055        -6.87282e+06         1.89583e+08
    1.15              348957             572.649        -6.87084e+06         1.89533e+08
    1.17              348784             572.236        -6.86883e+06         1.89482e+08
    1.19              348607             571.816        -6.86679e+06          1.8943e+08
    1.21              348427             571.389        -6.86471e+06         1.89378e+08
    1.23              348244             570.956         -6.8626e+06         1.89324e+08
    1.25              348059             570.516        -6.86045e+06          1.8927e+08
    1.27              347870             570.069        -6.85826e+06         1.89215e+08
    1.29              347679             569.615        -6.85604e+06         1.89158e+08
    1.31              347485             569.155        -6.85378e+06         1.89101e+08
    1.33              347288             568.688        -6.85149e+06         1.89043e+08
    1.35              347087             568.215        -6.84916e+06         1.88985e+08
    1.37              346884             567.735         -6.8468e+06         1.88925e+08
    1.39              346679             567.248         -6.8444e+06         1.88864e+08
    1.41              346470             566.755        -6.84197e+06         1.88803e+08
    1.43              346258             566.255         -6.8395e+06         1.88741e+08
    1.45              346043             565.749        -6.83699e+06         1.88677e+08
    1.47              345826             565.236        -6.83445e+06         1.88613e+08
    1.49              345606             564.717        -6.83187e+06         1.88548e+08
    1.51              345382             564.191        -6.82925e+06         1.88482e+08
    1.53              345156             563.659         -6.8266e+06         1.88415e+08
    1.55              344927              563.12        -6.82392e+06         1.88348e+08
    1.57              344696             562.575        -6.82119e+06         1.88279e+08
    1.59              344461             562.024        -6.81843e+06          1.8821e+08
    1.61              344223             561.466        -6.81564e+06         1.88139e+08
    1.63              343983             560.902        -6.81281e+06         1.88068e+08
    1.65              343740             560.332        -6.80994e+06         1.87996e+08
    1.67              343494             559.755        -6.80704e+06         1.87923e+08
    1.69              343245             559.172         -6.8041e+06         1.87849e+08
    1.71              342993             558.583        -6.80112e+06         1.87774e+08
    1.73              342738             557.988        -6.79811e+06         1.87698e+08
    1.75              342481             557.387        -6.79506e+06         1.87621e+08
    1.77              342221             556.779        -6.79197e+06         1.87544e+08
    1.79              341958             556.165        -6.78885e+06         1.87465e+08
    1.81              341692             555.546        -6.78569e+06         1.87386e+08
    1.83              341423              554.92        -6.78249e+06         1.87305e+08
    1.85              341152             554.288        -6.77926e+06         1.87224e+08
    1.87              340878              553.65        -6.77599e+06         1.87142e+08
    1.89              340601             553.006        -6.77268e+06         1.87059e+08
    1.91              340321             552.356        -6.76934e+06         1.86975e+08
    1.93              340038               551.7        -6.76596e+06          1.8689e+08
    1.95              339753             551.038        -6.76254e+06         1.86805e+08
    1.97              339465              550.37        -6.75908e+06         1.86718e+08
    1.99              339174             549.697        -6.75559e+06         1.86631e+08
    2.01              338880             549.017        -6.75206e+06         1.86542e+08
    2.03              338584             548.332         -6.7485e+06         1.86453e+08
    2.05              338285             547.641        -6.74489e+06         1.86362e+08
    2.07              337983             546.944        -6.74125e+06         1.86271e+08
    2.09              337678             546.241        -6.73757e+06         1.86179e+08
    2.11              337371             545.533        -6.73386e+06         1.86086e+08
    2.13              337061             544.819         -6.7301e+06         1.85992e+08
    2.15              336748             544.099        -6.72631e+06         1.85897e+08
    2.17              336433             543.374        -6.72249e+06         1.85802e+08
    2.19              336114             542.643        -6.71862e+06         1.85705e+08
    2.21              335793             541.907        -6.71472e+06         1.85607e+08
    2.23              335470             541.165        -6.71077e+06         1.85509e+08
    2.25              335143             540.418        -6.70679e+06          1.8541e+08
    2.27              334814             539.665        -6.70278e+06         1.85309e+08
    2.29              334483             538.906        -6.69872e+06         1.85208e+08
    2.31              334148             538.143        -6.69463e+06         1.85106e+08
    2.33              333811             537.374         -6.6905e+06         1.85003e+08
    2.35              333472             536.599        -6.68633e+06         1.84899e+08
    2.37              333129             535.819        -6.68212e+06         1.84794e+08
    2.39              332784             535.034        -6.67788e+06         1.84688e+08
    2.41              332437             534.244        -6.67359e+06         1.84581e+08
    2.43              332086             533.448        -6.66927e+06         1.84473e+08
    2.45              331733             532.647        -6.66491e+06         1.84365e+08
    2.47              331378             531.841        -6.66051e+06         1.84255e+08
    2.49              331020              531.03        -6.65608e+06         1.84145e+08
    2.51              330659             530.214         -6.6516e+06         1.84033e+08
    2.53              330296             529.393        -6.64709e+06         1.83921e+08
    2.55              329930             528.566        -6.64253e+06         1.83808e+08
    2.57              329561             527.735        -6.63794e+06         1.83694e+08
    2.59              329190             526.899        -6.63331e+06         1.83578e+08
    2.61              328816             526.057        -6.62864e+06         1.83462e+08
    2.63              328440             525.211        -6.62393e+06         1.83345e+08
    2.65              328061              524.36        -6.61919e+06         1.83227e+08
    2.67              327679             523.504         -6.6144e+06         1.83108e+08
    2.69              327295             522.643        -6.60958e+06         1.82989e+08
    2.71              326909             521.778        -6.60471e+06         1.82868e+08
    2.73              326520             520.907        -6.59981e+06         1.82746e+08
    2.75              326128             520.032        -6.59487e+06         1.82623e+08
    2.77              325734             519.152        -6.58989e+06           1.825e+08
    2.79              325337             518.268        -6.58487e+06         1.82375e+08
    2.81              324938             517.379        -6.57981e+06          1.8225e+08
    2.83              324536             516.485        -6.57471e+06         1.82123e+08
    2.85              324132             515.587        -6.56957e+06         1.81996e+08
    2.87              323726             514.684        -6.56439e+06         1.81868e+08
    2.89              323316             513.777        -6.55918e+06         1.81739e+08
    2.91              322905             512.866        -6.55392e+06         1.81608e+08
    2.93              322491             511.949        -6.54862e+06         1.81477e+08
    2.95              322074             511.029        -6.54329e+06         1.81345e+08
    2.97              321655             510.104        -6.53791e+06         1.81212e+08
    2.99              321234             509.175        -6.53249e+06         1.81078e+08
    3.01              320810             508.242        -6.52704e+06         1.80943e+08
    3.03              320383             507.304        -6.52154e+06         1.80807e+08
    3.05              319954             506.362        -6.51601e+06          1.8067e+08
    3.07              319523             505.416        -6.51043e+06         1.80532e+08
    3.09              319090             504.466        -6.50482e+06         1.80394e+08
    3.11              318654             503.511        -6.49916e+06         1.80254e+08
    3.13              318215             502.553        -6.49347e+06         1.80113e+08
    3.15              317774              501.59        -6.48773e+06         1.79972e+08
    3.17              317331             500.624        -6.48196e+06         1.79829e+08
    3.19              316885             499.653        -6.47614e+06         1.79685e+08
    3.21              316438             498.679        -6.47028e+06         1.79541e+08
    3.23              315987             497.701        -6.46439e+06         1.79395e+08
    3.25              315535             496.718        -6.45845e+06         1.79249e+08
    3.27              315080             495.732        -6.45247e+06         1.79101e+08
    3.29              314622             494.743        -6.44646e+06         1.78953e+08
    3.31              314163             493.749         -6.4404e+06         1.78804e+08
    3.33              313701             492.752         -6.4343e+06         1.78653e+08
    3.35              313236             491.751        -6.42816e+06         1.78502e+08
    3.37              312770             490.746        -6.42198e+06          1.7835e+08
    3.39              312301             489.738        -6.41576e+06         1.78196e+08
    3.41              311830             488.726         -6.4095e+06         1.78042e+08
    3.43              311356              487.71        -6.40319e+06         1.77887e+08
    3.45              310881             486.691        -6.39685e+06         1.77731e+08
    3.47              310403             485.669        -6.39047e+06         1.77574e+08
    3.49              309922             484.643        -6.38404e+06         1.77415e+08
    3.51              309440             483.613        -6.37758e+06         1.77256e+08
    3.53              308955             482.581        -6.37107e+06         1.77096e+08
    3.55              308468             481.545        -6.36452e+06         1.76935e+08
    3.57              307979             480.505        -6.35793e+06         1.76773e+08
    3.59              307488             479.463        -6.35131e+06          1.7661e+08
    3.61              306994             478.417        -6.34463e+06         1.76446e+08
    3.63              306498             477.368        -6.33792e+06         1.76281e+08
    3.65              306000             476.315        -6.33117e+06         1.76115e+08
    3.67              305500              475.26        -6.32438e+06         1.75948e+08
    3.69              304998             474.201        -6.31754e+06          1.7578e+08
    3.71              304493              473.14        -6.31066e+06         1.75611e+08
    3.73              303987             472.075        -6.30375e+06         1.75441e+08
    3.75              303478             471.008        -6.29679e+06          1.7527e+08
    3.77              302967             469.937        -6.28979e+06         1.75098e+08
    3.79              302454             468.864        -6.28275e+06         1.74925e+08
    3.81              301939             467.788        -6.27566e+06         1.74752e+08
    3.83              301422             466.709        -6.26854e+06         1.74577e+08
    3.85              300902             465.627        -6.26137e+06         1.74401e+08
    3.87              300381             464.542        -6.25417e+06         1.74224e+08
    3.89              299857             463.454        -6.24692e+06         1.74046e+08
    3.91              299332             462.364        -6.23963e+06         1.73867e+08
    3.93              298804             461.272         -6.2323e+06         1.73687e+08
    3.95              298274             460.176        -6.22492e+06         1.73506e+08
    3.97              297743             459.078        -6.21751e+06         1.73325e+08
    3.99              297209             457.977        -6.21005e+06         1.73142e+08
    4.01              296673             456.874        -6.20255e+06         1.72958e+08
    4.03              296135             455.769        -6.19501e+06         1.72773e+08
    4.05              295595             454.661        -6.18743e+06         1.72587e+08
    4.07              295053              453.55        -6.17981e+06           1.724e+08
    4.09              294510             452.437        -6.17215e+06         1.72213e+08
    4.11              293964             451.322        -6.16444e+06         1.72024e+08
    4.13              293416             450.205         -6.1567e+06         1.71834e+08
    4.15              292866             449.085        -6.14891e+06         1.71643e+08
    4.17              292315             447.963        -6.14108e+06         1.71451e+08
    4.19              291761             446.838         -6.1332e+06         1.71258e+08
    4.21              291206             445.712        -6.12529e+06         1.71064e+08
    4.23              290648             444.584        -6.11734e+06         1.70869e+08
    4.25              290089             443.453        -6.10934e+06         1.70674e+08
    4.27              289527              442.32         -6.1013e+06         1.70477e+08
    4.29              288964             441.185        -6.09322e+06         1.70279e+08
    4.31              288399             440.049         -6.0851e+06          1.7008e+08
    4.33              287832              438.91        -6.07694e+06          1.6988e+08
    4.35              287264             437.769        -6.06873e+06         1.69679e+08
    4.37              286693             436.627        -6.06049e+06         1.69477e+08
    4.39              286121             435.483         -6.0522e+06         1.69274e+08
    4.41              285546             434.336        -6.04387e+06          1.6907e+08
    4.43              284970             433.188         -6.0355e+06         1.68865e+08
    4.45              284392             432.039        -6.02709e+06         1.68659e+08
    4.47              283812             430.887        -6.01863e+06         1.68452e+08
    4.49              283231             429.734        -6.01014e+06         1.68244e+08
    4.51              282648             428.579         -6.0016e+06         1.68035e+08
    4.53              282063             427.423        -5.99302e+06         1.67825e+08
    4.55              281476             426.265         -5.9844e+06         1.67614e+08
    4.57              280887             425.106        -5.97574e+06         1.67402e+08
    4.59              280297             423.945        -5.96704e+06         1.67189e+08
    4.61              279705             422.782         -5.9583e+06         1.66975e+08
    4.63              279111             421.618        -5.94951e+06          1.6676e+08
    4.65              278516             420.453        -5.94069e+06         1.66544e+08
    4.67              277919             419.286        -5.93182e+06         1.66327e+08
    4.69              277320             418.118        -5.92291e+06         1.66109e+08
    4.71              276719             416.949        -5.91396e+06          1.6589e+08
    4.73              276117             415.778        -5.90497e+06          1.6567e+08
    4.75              275513             414.607        -5.89594e+06         1.65449e+08
    4.77              274908             413.434        -5.88687e+06         1.65227e+08
    4.79              274301             412.259        -5.87775e+06         1.65004e+08
    4.81              273692             411.084         -5.8686e+06          1.6478e+08
    4.83              273082             409.908         -5.8594e+06         1.64554e+08
    4.85              272470              408.73        -5.85017e+06         1.64328e+08
    4.87              271856             407.551        -5.84089e+06         1.64101e+08
    4.89              271241             406.372        -5.83157e+06         1.63873e+08
    4.91              270625             405.191        -5.82221e+06         1.63644e+08
    4.93              270007              404.01        -5.81282e+06         1.63414e+08
    4.95              269387             402.827        -5.80338e+06         1.63182e+08
    4.97              268766             401.644         -5.7939e+06          1.6295e+08
    4.99              268143              400.46        -5.78438e+06         1.62717e+08
    5.01              267519             399.275        -5.77481e+06         1.62483e+08
    5.03              266893             398.089        -5.76521e+06         1.62248e+08
    5.05              266266             396.903        -5.75557e+06         1.62012e+08
    5.07              265637             395.716        -5.74589e+06         1.61774e+08
    5.09              265007             394.528        -5.73617e+06         1.61536e+08
    5.11              264375              393.34        -5.72641e+06         1.61297e+08
    5.13              263742             392.151        -5.71661e+06         1.61057e+08
    5.15              263108             390.961        -5.70676e+06         1.60816e+08
    5.17              262472             389.771        -5.69688e+06         1.60573e+08
    5.19              261834              388.58        -5.68696e+06          1.6033e+08
    5.21              261196             387.389          -5.677e+06         1.60086e+08
    5.23              260556             386.197          -5.667e+06         1.59841e+08
    5.25              259914             385.005        -5.65696e+06         1.59595e+08
    5.27              259271             383.812        -5.64689e+06         1.59348e+08
    5.29              258627              382.62        -5.63677e+06           1.591e+08
    5.31              257982             381.426        -5.62661e+06          1.5885e+08
    5.33              257335             380.233        -5.61642e+06           1.586e+08
    5.35              256687             379.039        -5.60618e+06         1.58349e+08
    5.37              256038             377.845        -5.59591e+06         1.58097e+08
    5.39              255387             376.651         -5.5856e+06         1.57844e+08
    5.41              254735             375.456        -5.57524e+06          1.5759e+08
    5.43              254082             374.262        -5.56486e+06         1.57335e+08
    5.45              253428             373.067        -5.55443e+06         1.57079e+08
    5.47              252772             371.872        -5.54396e+06         1.56822e+08
    5.49              252115             370.677        -5.53346e+06         1.56564e+08
    5.51              251457             369.483        -5.52292e+06         1.56305e+08
    5.53              250798             368.288        -5.51234e+06         1.56045e+08
    5.55              250138             367.093        -5.50172e+06         1.55785e+08
    5.57              249476             365.898        -5.49106e+06         1.55523e+08
    5.59              248813             364.703        -5.48037e+06          1.5526e+08
    5.61              248150             363.509        -5.46964e+06         1.54996e+08
    5.63              247485             362.314        -5.45887e+06         1.54732e+08
    5.65              246818              361.12        -5.44807e+06         1.54466e+08
    5.67              246151             359.926        -5.43723e+06           1.542e+08
    5.69              245483             358.732        -5.42635e+06         1.53932e+08
    5.71              244814             357.539        -5.41544e+06         1.53663e+08
    5.73              244143             356.345        -5.40449e+06         1.53394e+08
    5.75              243472             355.152         -5.3935e+06         1.53124e+08
    5.77              242799              353.96        -5.38247e+06         1.52852e+08
    5.79              242126             352.767        -5.37141e+06          1.5258e+08
    5.81              241451             351.576        -5.36032e+06         1.52307e+08
    5.83              240776             350.384        -5.34919e+06         1.52033e+08
    5.85              240099             349.193        -5.33802e+06         1.51758e+08
    5.87              239422             348.003        -5.32682e+06         1.51482e+08
    5.89              238743             346.813        -5.31558e+06         1.51205e+08
    5.91              238064             345.623        -5.30431e+06         1.50927e+08
    5.93              237384             344.434          -5.293e+06         1.50648e+08
    5.95              236703             343.246        -5.28166e+06         1.50369e+08
    5.97              236021             342.058        -5.27028e+06         1.50088e+08
    5.99              235338             340.871        -5.25887e+06         1.49807e+08
    6.01              234654             339.685        -5.24743e+06         1.49524e+08
    6.03              233969             338.499        -5.23595e+06         1.49241e+08
    6.05              233284             337.315        -5.22444e+06         1.48957e+08
    6.07              232597              336.13        -5.21289e+06         1.48672e+08
    6.09              231910             334.947        -5.20131e+06         1.48386e+08
    6.11              231222             333.764         -5.1897e+06         1.48099e+08
    6.13              230533             332.583        -5.17805e+06         1.47811e+08
    6.15              229844             331.402        -5.16637e+06         1.47523e+08
    6.17              229154             330.222        -5.15466e+06         1.47233e+08
    6.19              228463             329.042        -5.14292e+06         1.46943e+08
    6.21              227771             327.864        -5.13114e+06         1.46652e+08
    6.23              227079             326.687        -5.11933e+06          1.4636e+08
    6.25              226385             325.511        -5.10749e+06         1.46067e+08
    6.27              225692             324.335        -5.09562e+06         1.45773e+08
    6.29              224997             323.161        -5.08372e+06         1.45479e+08
    6.31              224302             321.988        -5.07179e+06         1.45183e+08
    6.33              223606             320.816        -5.05982e+06         1.44887e+08
    6.35              222910             319.645        -5.04783e+06          1.4459e+08
    6.37              222213             318.475         -5.0358e+06         1.44292e+08
    6.39              221515             317.306        -5.02375e+06         1.43993e+08
    6.41              220817             316.138        -5.01166e+06         1.43693e+08
    6.43              220118             314.972        -4.99955e+06         1.43393e+08
    6.45              219419             313.807         -4.9874e+06         1.43092e+08
    6.47              218719             312.643        -4.97523e+06          1.4279e+08
    6.49              218019              311.48        -4.96303e+06         1.42487e+08
    6.51              217318             310.319         -4.9508e+06         1.42183e+08
    6.53              216616             309.159        -4.93854e+06         1.41879e+08
    6.55              215915                 308        -4.92625e+06         1.41574e+08
    6.57              215212             306.843        -4.91393e+06         1.41268e+08
    6.59              214510             305.687        -4.90159e+06         1.40961e+08
    6.61              213806             304.532        -4.88922e+06         1.40653e+08
    6.63              213103             303.379        -4.87682e+06         1.40345e+08
    6.65              212399             302.227         -4.8644e+06         1.40036e+08
    6.67              211695             301.077        -4.85195e+06         1.39726e+08
    6.69              210990             299.928        -4.83947e+06         1.39416e+08
    6.71              210285             298.781        -4.82696e+06         1.39104e+08
    6.73              209579             297.635        -4.81443e+06         1.38792e+08
    6.75              208874             296.491        -4.80188e+06          1.3848e+08
    6.77              208168             295.348         -4.7893e+06         1.38166e+08
    6.79              207461             294.207        -4.77669e+06         1.37852e+08
    6.81              206755             293.068        -4.76406e+06         1.37537e+08
    6.83              206048              291.93        -4.75141e+06         1.37221e+08
    6.85              205341             290.794        -4.73873e+06         1.36905e+08
    6.87              204634             289.659        -4.72603e+06         1.36588e+08
    6.89              203926             288.526        -4.71331e+06          1.3627e+08
    6.91              203219             287.395        -4.70056e+06         1.35952e+08
    6.93              202511             286.266        -4.68779e+06         1.35633e+08
    6.95              201803             285.138        -4.67499e+06         1.35313e+08
    6.97              201095             284.012        -4.66218e+06         1.34993e+08
    6.99              200386             282.888        -4.64934e+06         1.34672e+08
    7.01              199678             281.766        -4.63648e+06          1.3435e+08
    7.03              198969             280.646         -4.6236e+06         1.34028e+08
    7.05              198261             279.527        -4.61069e+06         1.33705e+08
    7.07              197552             278.411        -4.59777e+06         1.33382e+08
    7.09              196843             277.296        -4.58483e+06         1.33058e+08
    7.11              196135             276.183        -4.57187e+06         1.32733e+08
    7.13              195426             275.072        -4.55888e+06         1.32408e+08
    7.15              194717             273.963        -4.54588e+06         1.32082e+08
    7.17              194009             272.856        -4.53286e+06         1.31755e+08
    7.19              193300             271.751        -4.51982e+06         1.31428e+08
    7.21              192591             270.648        -4.50676e+06           1.311e+08
    7.23              191883             269.547        -4.49369e+06         1.30772e+08
    7.25              191174             268.448        -4.48059e+06         1.30443e+08
    7.27              190466             267.351        -4.46748e+06         1.30114e+08
    7.29              189758             266.256        -4.45435e+06         1.29784e+08
    7.31              189050             265.163        -4.44121e+06         1.29454e+08
    7.33              188342             264.072        -4.42805e+06         1.29123e+08
    7.35              187634             262.983        -4.41487e+06         1.28791e+08
    7.37              186926             261.897        -4.40168e+06         1.28459e+08
    7.39              186219             260.813        -4.38847e+06         1.28127e+08
    7.41              185512              259.73        -4.37525e+06         1.27794e+08
    7.43              184805              258.65        -4.36201e+06         1.27461e+08
    7.45              184098             257.573        -4.34876e+06         1.27127e+08
    7.47              183392             256.497        -4.33549e+06         1.26792e+08
    7.49              182686             255.424        -4.32222e+06         1.26458e+08
    7.51              181980             254.352        -4.30892e+06         1.26122e+08
    7.53              181274             253.283        -4.29562e+06         1.25787e+08
    7.55              180569             252.217         -4.2823e+06         1.25451e+08
    7.57              179864             251.152        -4.26898e+06         1.25114e+08
    7.59              179160              250.09        -4.25564e+06         1.24777e+08
    7.61              178456             249.031        -4.24228e+06          1.2444e+08
    7.63              177752             247.973        -4.22892e+06         1.24102e+08
    7.65              177049             246.918        -4.21555e+06         1.23764e+08
    7.67              176346             245.866        -4.20217e+06         1.23425e+08
    7.69              175644             244.815        -4.18877e+06         1.23086e+08
    7.71              174942             243.767        -4.17537e+06         1.22747e+08
    7.73              174240             242.722        -4.16196e+06         1.22408e+08
    7.75              173539             241.679        -4.14854e+06         1.22068e+08
    7.77              172839             240.638        -4.13512e+06         1.21728e+08
    7.79              172139               239.6        -4.12168e+06         1.21387e+08
    7.81              171440             238.564        -4.10824e+06         1.21046e+08
    7.83              170741             237.531        -4.09479e+06         1.20705e+08
    7.85              170043               236.5        -4.08134e+06         1.20363e+08
    7.87              169346             235.471        -4.06787e+06         1.20022e+08
    7.89              168649             234.445        -4.05441e+06          1.1968e+08
    7.91              167953             233.422        -4.04093e+06         1.19337e+08
    7.93              167257             232.401        -4.02746e+06         1.18995e+08
    7.95              166562             231.383        -4.01397e+06         1.18652e+08
    7.97              165868             230.367        -4.00049e+06         1.18309e+08
    7.99              165174             229.354          -3.987e+06         1.17966e+08
    8.01              164482             228.344         -3.9735e+06         1.17622e+08
    8.03              163790             227.336        -3.96001e+06         1.17279e+08
    8.05              163098              226.33        -3.94651e+06         1.16935e+08
    8.07              162408             225.328        -3.93301e+06         1.16591e+08
    8.09              161718             224.327         -3.9195e+06         1.16247e+08
    8.11              161029              223.33          -3.906e+06         1.15902e+08
    8.13              160341             222.335        -3.89249e+06         1.15558e+08
    8.15              159654             221.343        -3.87899e+06         1.15213e+08
    8.17              158967             220.353        -3.86548e+06         1.14869e+08
    8.19              158282             219.366        -3.85198e+06         1.14524e+08
    8.21              157597             218.382        -3.83847e+06         1.14179e+08
    8.23              156914             217.401        -3.82497e+06         1.13834e+08
    8.25              156231             216.422        -3.81147e+06         1.13488e+08
    8.27              155549             215.446        -3.79797e+06         1.13143e+08
    8.29              154868             214.472        -3.78447e+06         1.12798e+08
    8.31              154188             213.502        -3.77098e+06         1.12452e+08
    8.33              153509             212.534        -3.75749e+06         1.12107e+08
    8.35              152831             211.569          -3.744e+06         1.11762e+08
    8.37              152154             210.607        -3.73052e+06         1.11416e+08
    8.39              151479             209.647        -3.71704e+06         1.11071e+08
    8.41              150804              208.69        -3.70357e+06         1.10725e+08
    8.43              150130             207.736         -3.6901e+06          1.1038e+08
    8.45              149457             206.785        -3.67664e+06         1.10034e+08
    8.47              148786             205.837        -3.66318e+06         1.09689e+08
    8.49              148116             204.891        -3.64973e+06         1.09343e+08
    8.51              147446             203.948        -3.63629e+06         1.08998e+08
    8.53              146778             203.008        -3.62285e+06         1.08652e+08
    8.55              146111             202.071        -3.60943e+06         1.08307e+08
    8.57              145446             201.137        -3.59601e+06         1.07962e+08
    8.59              144781             200.206         -3.5826e+06         1.07617e+08
    8.61              144118             199.277         -3.5692e+06         1.07272e+08
    8.63              143456             198.351        -3.55581e+06         1.06927e+08
    8.65              142795             197.429        -3.54243e+06         1.06583e+08
    8.67              142135             196.509        -3.52906e+06         1.06238e+08
    8.69              141477             195.592         -3.5157e+06         1.05894e+08
    8.71              140820             194.678        -3.50235e+06         1.05549e+08
    8.73              140165             193.766        -3.48901e+06         1.05205e+08
    8.75              139510             192.858        -3.47569e+06         1.04861e+08
    8.77              138857             191.953        -3.46238e+06         1.04518e+08
    8.79              138206              191.05        -3.44908e+06         1.04174e+08
    8.81              137555             190.151        -3.43579e+06         1.03831e+08
    8.83              136907             189.254        -3.42252e+06         1.03488e+08
    8.85              136259              188.36        -3.40926e+06         1.03145e+08
    8.87              135613              187.47        -3.39602e+06         1.02803e+08
    8.89              134969             186.582         -3.3828e+06          1.0246e+08
    8.91              134326             185.697        -3.36958e+06         1.02118e+08
    8.93              133684             184.815        -3.35639e+06         1.01777e+08
    8.95              133044             183.936        -3.34321e+06         1.01435e+08
    8.97              132405             183.061        -3.33005e+06         1.01094e+08
    8.99              131768             182.188         -3.3169e+06         1.00753e+08
    9.01              131132             181.318        -3.30377e+06         1.00413e+08
    9.03              130498             180.451        -3.29067e+06         1.00073e+08
    9.05              129866             179.587        -3.27757e+06         9.97327e+07
    9.07              129235             178.726         -3.2645e+06         9.93933e+07
    9.09              128606             177.868        -3.25145e+06         9.90542e+07
    9.11              127978             177.013        -3.23842e+06         9.87155e+07
    9.13              127352             176.161         -3.2254e+06         9.83772e+07
    9.15              126727             175.312        -3.21241e+06         9.80393e+07
    9.17              126104             174.466        -3.19944e+06         9.77019e+07
    9.19              125483             173.623        -3.18649e+06         9.73648e+07
    9.21              124864             172.784        -3.17356e+06         9.70282e+07
    9.23              124246             171.947        -3.16066e+06         9.66921e+07
    9.25              123630             171.113        -3.14777e+06         9.63564e+07
    9.27              123015             170.282        -3.13491e+06         9.60212e+07
    9.29              122403             169.455        -3.12208e+06         9.56864e+07
    9.31              121792              168.63        -3.10926e+06         9.53522e+07
    9.33              121183             167.808        -3.09647e+06         9.50184e+07
    9.35              120575              166.99        -3.08371e+06         9.46852e+07
    9.37              119969             166.174        -3.07097e+06         9.43525e+07
    9.39              119366             165.362        -3.05826e+06         9.40204e+07
    9.41              118764             164.552        -3.04557e+06         9.36887e+07
    9.43              118163             163.746         -3.0329e+06         9.33577e+07
    9.45              117565             162.943        -3.02027e+06         9.30272e+07
    9.47              116969             162.142        -3.00766e+06         9.26973e+07
    9.49              116374             161.345        -2.99508e+06          9.2368e+07
    9.51              115781             160.551        -2.98252e+06         9.20393e+07
    9.53              115190              159.76           -2.97e+06         9.17112e+07
    9.55              114601             158.972         -2.9575e+06         9.13837e+07
    9.57              114014             158.187        -2.94503e+06         9.10569e+07
    9.59              113429             157.406        -2.93259e+06         9.07307e+07
    9.61              112846             156.627        -2.92018e+06         9.04051e+07
    9.63              112265             155.851         -2.9078e+06         9.00802e+07
    9.65              111685             155.079        -2.89546e+06          8.9756e+07
    9.67              111108             154.309        -2.88314e+06         8.94325e+07
    9.69              110533             153.543        -2.87085e+06         8.91097e+07
    9.71              109959              152.78        -2.85859e+06         8.87875e+07
    9.73              109388             152.019        -2.84637e+06         8.84661e+07
    9.75              108819             151.262        -2.83418e+06         8.81455e+07
    9.77              108251             150.508        -2.82202e+06         8.78255e+07
    9.79              107686             149.757        -2.80989e+06         8.75063e+07
    9.81              107123             149.009         -2.7978e+06         8.71879e+07
    9.83              106562             148.264        -2.78574e+06         8.68702e+07
    9.85              106003             147.523        -2.77371e+06         8.65533e+07
    9.87              105446             146.784        -2.76172e+06         8.62372e+07
    9.89              104891             146.049        -2.74976e+06         8.59219e+07
    9.91              104338             145.316        -2.73784e+06         8.56073e+07
    9.93              103787             144.587        -2.72595e+06         8.52936e+07
    9.95              103239             143.861         -2.7141e+06         8.49808e+07
    9.97              102692             143.137        -2.70229e+06         8.46687e+07
    9.99              102148             142.417        -2.69051e+06         8.43575e+07
   10.01              101606               141.7        -2.67877e+06         8.40472e+07
   10.03              101066             140.986        -2.66706e+06         8.37377e+07
   10.05              100528             140.276        -2.65539e+06         8.34291e+07
   10.07             99992.9             139.568        -2.64376e+06         8.31214e+07
   10.09             99459.5             138.863        -2.63217e+06         8.28145e+07
   10.11             98928.3             138.162        -2.62061e+06         8.25086e+07
   10.13             98399.3             137.463         -2.6091e+06         8.22035e+07
   10.15             97872.6             136.768        -2.59762e+06         8.18994e+07
   10.17             97348.1             136.075        -2.58618e+06         8.15962e+07
   10.19             96825.8             135.386        -2.57478e+06          8.1294e+07
   10.21             96305.8               134.7        -2.56343e+06         8.09927e+07
   10.23               95788             134.017        -2.55211e+06         8.06923e+07
   10.25             95272.5             133.337        -2.54083e+06         8.03929e+07
   10.27             94759.3              132.66        -2.52959e+06         8.00945e+07
   10.29             94248.3             131.986        -2.51839e+06          7.9797e+07
   10.31             93739.6             131.316        -2.50724e+06         7.95005e+07
   10.33             93233.3             130.648        -2.49612e+06         7.92051e+07
   10.35             92729.2             129.983        -2.48505e+06         7.89106e+07
   10.37             92227.4             129.322        -2.47402e+06         7.86171e+07
   10.39               91728             128.663        -2.46303e+06         7.83247e+07
   10.41             91230.9             128.008        -2.45209e+06         7.80333e+07
   10.43             90736.1             127.355        -2.44118e+06         7.77429e+07
   10.45             90243.6             126.706        -2.43032e+06         7.74536e+07
   10.47             89753.5              126.06        -2.41951e+06         7.71653e+07
   10.49             89265.8             125.417        -2.40874e+06         7.68781e+07
   10.51             88780.4             124.777        -2.39801e+06         7.65919e+07
   10.53             88297.4              124.14        -2.38732e+06         7.63068e+07
   10.55             87816.7             123.506        -2.37668e+06         7.60228e+07
   10.57             87338.5             122.875        -2.36609e+06         7.57399e+07
   10.59             86862.6             122.247        -2.35553e+06         7.54581e+07
   10.61             86389.1             121.622        -2.34503e+06         7.51773e+07
   10.63               85918             121.001        -2.33457e+06         7.48977e+07
   10.65             85449.3             120.382        -2.32415e+06         7.46192e+07
   10.67               84983             119.766        -2.31378e+06         7.43418e+07
   10.69             84519.1             119.154        -2.30346e+06         7.40656e+07
   10.71             84057.6             118.544        -2.29318e+06         7.37905e+07
   10.73             83598.5             117.937        -2.28295e+06         7.35165e+07
   10.75             83141.9             117.334        -2.27277e+06         7.32437e+07
   10.77             82687.7             116.733        -2.26263e+06         7.29721e+07
   10.79               82236             116.136        -2.25254e+06         7.27016e+07
   10.81             81786.6             115.542         -2.2425e+06         7.24322e+07
   10.83             81339.8              114.95         -2.2325e+06         7.21641e+07
   10.85             80895.3             114.362        -2.22255e+06         7.18971e+07
   10.87             80453.4             113.776        -2.21265e+06         7.16314e+07
   10.89             80013.8             113.194         -2.2028e+06         7.13668e+07
   10.91             79576.8             112.615          -2.193e+06         7.11034e+07
   10.93             79142.2             112.039        -2.18324e+06         7.08412e+07
   10.95               78710             111.465        -2.17353e+06         7.05802e+07
   10.97             78280.4             110.895        -2.16387e+06         7.03205e+07
   10.99             77853.2             110.328        -2.15426e+06         7.00619e+07
   11.01             77428.5             109.764         -2.1447e+06         6.98046e+07
   11.03             77006.2             109.202        -2.13519e+06         6.95485e+07
   11.05             76586.4             108.644        -2.12573e+06         6.92937e+07
   11.07             76169.2             108.089        -2.11632e+06         6.90401e+07
   11.09             75754.4             107.537        -2.10695e+06         6.87877e+07
   11.11             75342.1             106.987        -2.09764e+06         6.85366e+07
   11.13             74932.2             106.441        -2.08837e+06         6.82868e+07
   11.15             74524.9             105.898        -2.07916e+06         6.80382e+07
   11.17             74120.1             105.357           -2.07e+06         6.77909e+07
   11.19             73717.7              104.82        -2.06088e+06         6.75448e+07
   11.21             73317.9             104.286        -2.05182e+06         6.73001e+07
   11.23             72920.5             103.755        -2.04281e+06         6.70566e+07
   11.25             72525.7             103.226        -2.03385e+06         6.68143e+07
   11.27             72133.3             102.701        -2.02494e+06         6.65734e+07
   11.29             71743.5             102.178        -2.01608e+06         6.63338e+07
   11.31             71356.1             101.659        -2.00727e+06         6.60954e+07
   11.33             70971.3             101.142        -1.99851e+06         6.58584e+07
   11.35             70588.9             100.629         -1.9898e+06         6.56226e+07
   11.37             70209.1             100.118        -1.98115e+06         6.53882e+07
   11.39             69831.7             99.6108        -1.97254e+06          6.5155e+07
   11.41             69456.9             99.1062        -1.96399e+06         6.49232e+07
   11.43             69084.5             98.6046        -1.95549e+06         6.46927e+07
   11.45             68714.7             98.1058        -1.94704e+06         6.44635e+07
   11.47             68347.3             97.6101        -1.93864e+06         6.42356e+07
   11.49             67982.5             97.1173         -1.9303e+06         6.40091e+07
   11.51             67620.2             96.6274          -1.922e+06         6.37839e+07
   11.53             67260.3             96.1405        -1.91376e+06           6.356e+07
   11.55               66903             95.6565        -1.90557e+06         6.33374e+07
   11.57             66548.1             95.1755        -1.89743e+06         6.31162e+07
   11.59             66195.8             94.6974        -1.88935e+06         6.28963e+07
   11.61             65845.9             94.2223        -1.88131e+06         6.26777e+07
   11.63             65498.6             93.7501        -1.87333e+06         6.24605e+07
   11.65             65153.7             93.2808         -1.8654e+06         6.22447e+07
   11.67             64811.3             92.8145        -1.85752e+06         6.20301e+07
   11.69             64471.4             92.3511         -1.8497e+06          6.1817e+07
   11.71               64134             91.8906        -1.84193e+06         6.16051e+07
   11.73             63799.1              91.433        -1.83421e+06         6.13946e+07
   11.75             63466.6             90.9784        -1.82654e+06         6.11855e+07
   11.77             63136.7             90.5267        -1.81892e+06         6.09777e+07
   11.79             62809.2             90.0779        -1.81136e+06         6.07713e+07
   11.81             62484.2             89.6321        -1.80385e+06         6.05662e+07
   11.83             62161.6             89.1891        -1.79639e+06         6.03625e+07
   11.85             61841.5             88.7491        -1.78899e+06         6.01602e+07
   11.87             61523.9              88.312        -1.78163e+06         5.99592e+07
   11.89             61208.8             87.8778        -1.77433e+06         5.97595e+07
   11.91             60896.1             87.4465        -1.76708e+06         5.95612e+07
   11.93             60585.8             87.0182        -1.75989e+06         5.93643e+07
   11.95               60278             86.5927        -1.75274e+06         5.91688e+07
   11.97             59972.7             86.1701        -1.74565e+06         5.89746e+07
   11.99             59669.8             85.7505        -1.73861e+06         5.87817e+07
   12.01             59369.3             85.3338        -1.73163e+06         5.85903e+07
   12.03             59071.3               84.92        -1.72469e+06         5.84002e+07
   12.05             58775.7              84.509        -1.71781e+06         5.82114e+07
   12.07             58482.6              84.101        -1.71098e+06          5.8024e+07
   12.09             58191.8             83.6959         -1.7042e+06          5.7838e+07
   12.11             57903.5             83.2937        -1.69748e+06         5.76533e+07
   12.13             57617.6             82.8944        -1.69081e+06           5.747e+07
   12.15               57334             82.4979        -1.68418e+06         5.72881e+07
   12.17             57052.9             82.1044        -1.67762e+06         5.71075e+07
   12.19             56774.2             81.7138         -1.6711e+06         5.69283e+07
   12.21             56497.9              81.326        -1.66463e+06         5.67504e+07
   12.23               56224             80.9412        -1.65822e+06         5.65739e+07
   12.25             55952.4             80.5593        -1.65186e+06         5.63987e+07
   12.27             55683.3             80.1802        -1.64555e+06         5.62249e+07
   12.29             55416.5              79.804        -1.63929e+06         5.60525e+07
   12.31               55152             79.4308        -1.63309e+06         5.58814e+07
   12.33               54890             79.0604        -1.62693e+06         5.57117e+07
   12.35             54630.3             78.6929        -1.62083e+06         5.55433e+07
   12.37             54372.9             78.3283        -1.61478e+06         5.53763e+07
   12.39             54117.9             77.9666        -1.60878e+06         5.52106e+07
   12.41             53865.2             77.6077        -1.60283e+06         5.50462e+07
   12.43             53614.8             77.2518        -1.59693e+06         5.48832e+07
   12.45             53366.7             76.8987        -1.59108e+06         5.47216e+07
   12.47               53121             76.5485        -1.58529e+06         5.45612e+07
   12.49             52877.6             76.2012        -1.57954e+06         5.44023e+07
   12.51             52636.5             75.8568        -1.57385e+06         5.42446e+07
   12.53             52397.7             75.5153         -1.5682e+06         5.40883e+07
   12.55             52161.1             75.1766        -1.56261e+06         5.39333e+07
   12.57             51926.9             74.8408        -1.55707e+06         5.37797e+07
   12.59             51694.9             74.5079        -1.55157e+06         5.36274e+07
   12.61             51465.2             74.1779        -1.54613e+06         5.34764e+07
   12.63             51237.8             73.8508        -1.54074e+06         5.33267e+07
   12.65             51012.6             73.5265         -1.5354e+06         5.31783e+07
   12.67             50789.6             73.2051         -1.5301e+06         5.30313e+07
   12.69             50568.9             72.8866        -1.52486e+06         5.28856e+07
   12.71             50350.4             72.5709        -1.51967e+06         5.27411e+07
   12.73             50134.2             72.2581        -1.51452e+06          5.2598e+07
   12.75             49920.1             71.9482        -1.50943e+06         5.24562e+07
   12.77             49708.3             71.6411        -1.50438e+06         5.23157e+07
   12.79             49498.7              71.337        -1.49939e+06         5.21765e+07
   12.81             49291.2             71.0356        -1.49444e+06         5.20386e+07
   12.83             49085.9             70.7372        -1.48954e+06         5.19019e+07
   12.85             48882.9             70.4416        -1.48469e+06         5.17666e+07
   12.87             48681.9             70.1489        -1.47989e+06         5.16325e+07
   12.89             48483.2              69.859        -1.47513e+06         5.14998e+07
   12.91             48286.6              69.572        -1.47043e+06         5.13683e+07
   12.93             48092.1             69.2878        -1.46577e+06          5.1238e+07
   12.95             47899.7             69.0065        -1.46116e+06         5.11091e+07
   12.97             47709.5             68.7281         -1.4566e+06         5.09814e+07
   12.99             47521.4             68.4525        -1.45208e+06         5.08549e+07
   13.01             47335.4             68.1797        -1.44761e+06         5.07298e+07
   13.03             47151.5             67.9098        -1.44319e+06         5.06058e+07
   13.05             46969.7             67.6428        -1.43882e+06         5.04831e+07
   13.07               46790             67.3785        -1.43449e+06         5.03617e+07
   13.09             46612.3             67.1172        -1.43021e+06         5.02415e+07
   13.11             46436.7             66.8586        -1.42598e+06         5.01225e+07
   13.13             46263.1             66.6029        -1.42179e+06         5.00048e+07
   13.15             46091.6             66.3501        -1.41765e+06         4.98883e+07
   13.17             45922.2                66.1        -1.41355e+06          4.9773e+07
   13.19             45754.7             65.8528         -1.4095e+06          4.9659e+07
   13.21             45589.3             65.6084         -1.4055e+06         4.95461e+07
   13.23             45425.8             65.3668        -1.40154e+06         4.94344e+07
   13.25             45264.4             65.1281        -1.39762e+06          4.9324e+07
   13.27               45105             64.8921        -1.39375e+06         4.92147e+07
   13.29             44947.5              64.659        -1.38993e+06         4.91067e+07
   13.31               44792             64.4287        -1.38615e+06         4.89998e+07
   13.33             44638.4             64.2011        -1.38241e+06         4.88941e+07
   13.35             44486.8             63.9764        -1.37872e+06         4.87896e+07
   13.37             44337.2             63.7545        -1.37508e+06         4.86863e+07
   13.39             44189.4             63.5353        -1.37147e+06         4.85841e+07
   13.41             44043.6              63.319        -1.36791e+06         4.84831e+07
   13.43             43899.7             63.1054        -1.36439e+06         4.83832e+07
   13.45             43757.7             62.8946        -1.36092e+06         4.82845e+07
   13.47             43617.6             62.6866        -1.35749e+06          4.8187e+07
   13.49             43479.3             62.4813         -1.3541e+06         4.80905e+07
   13.51             43342.9             62.2788        -1.35076e+06         4.79953e+07
   13.53             43208.4             62.0791        -1.34745e+06         4.79011e+07
   13.55             43075.7             61.8821        -1.34419e+06         4.78081e+07
   13.57             42944.9             61.6878        -1.34097e+06         4.77161e+07
   13.59             42815.9             61.4963        -1.33779e+06         4.76253e+07
   13.61             42688.7             61.3075        -1.33466e+06         4.75356e+07
   13.63             42563.3             61.1214        -1.33156e+06          4.7447e+07
   13.65             42439.7             60.9381        -1.32851e+06         4.73595e+07
   13.67             42317.9             60.7575        -1.32549e+06         4.72731e+07
   13.69             42197.9             60.5795        -1.32252e+06         4.71878e+07
   13.71             42079.6             60.4043        -1.31959e+06         4.71035e+07
   13.73             41963.1             60.2318        -1.31669e+06         4.70203e+07
   13.75             41848.3             60.0619        -1.31384e+06         4.69382e+07
   13.77             41735.3             59.8948        -1.31103e+06         4.68571e+07
   13.79               41624             59.7302        -1.30825e+06         4.67771e+07
   13.81             41514.4             59.5684        -1.30552e+06         4.66981e+07
   13.83             41406.5             59.4092        -1.30282e+06         4.66202e+07
   13.85             41300.3             59.2526        -1.30016e+06         4.65433e+07
   13.87             41195.7             59.0987        -1.29755e+06         4.64674e+07
   13.89             41092.9             58.9474        -1.29496e+06         4.63926e+07
   13.91             40991.7             58.7987        -1.29242e+06         4.63188e+07
   13.93             40892.2             58.6527        -1.28992e+06         4.62459e+07
   13.95             40794.3             58.5092        -1.28745e+06         4.61741e+07
   13.97               40698             58.3683        -1.28502e+06         4.61033e+07
   13.99             40603.3               58.23        -1.28263e+06         4.60335e+07
   14.01             40510.3             58.0942        -1.28027e+06         4.59646e+07
   14.03             40418.8              57.961        -1.27795e+06         4.58967e+07
   14.05             40328.9             57.8304        -1.27567e+06         4.58298e+07
   14.07             40240.6             57.7023        -1.27342e+06         4.57639e+07
   14.09             40153.9             57.5767        -1.27121e+06         4.56989e+07
   14.11             40068.7             57.4536        -1.26903e+06         4.56348e+07
   14.13             39985.1             57.3331        -1.26689e+06         4.55718e+07
   14.15               39903              57.215        -1.26479e+06         4.55096e+07
   14.17             39822.4             57.0994        -1.26272e+06         4.54484e+07
   14.19             39743.3             56.9862        -1.26068e+06         4.53881e+07
   14.21             39665.7             56.8756        -1.25868e+06         4.53287e+07
   14.23             39589.7             56.7673        -1.25671e+06         4.52702e+07
   14.25             39515.1             56.6615        -1.25478e+06         4.52127e+07
   14.27             39441.9             56.5581        -1.25288e+06          4.5156e+07
   14.29             39370.2             56.4571        -1.25102e+06         4.51002e+07
   14.31               39300             56.3585        -1.24918e+06         4.50453e+07
   14.33             39231.2             56.2623        -1.24738e+06         4.49913e+07
   14.35             39163.8             56.1684        -1.24562e+06         4.49382e+07
   14.37             39097.9             56.0769        -1.24388e+06         4.48859e+07
   14.39             39033.3             55.9877        -1.24218e+06         4.48344e+07
   14.41             38970.2             55.9008        -1.24051e+06         4.47839e+07
   14.43             38908.4             55.8163        -1.23887e+06         4.47341e+07
   14.45               38848              55.734        -1.23726e+06         4.46853e+07
   14.47               38789              55.654        -1.23569e+06         4.46372e+07
   14.49             38731.3             55.5763        -1.23414e+06           4.459e+07
   14.51               38675             55.5008        -1.23263e+06         4.45435e+07
   14.53             38619.9             55.4275        -1.23115e+06         4.44979e+07
   14.55             38566.2             55.3565        -1.22969e+06         4.44531e+07
   14.57             38513.9             55.2876        -1.22827e+06         4.44091e+07
   14.59             38462.8              55.221        -1.22688e+06         4.43659e+07
   14.61               38413             55.1565        -1.22551e+06         4.43234e+07
   14.63             38364.5             55.0941        -1.22418e+06         4.42818e+07
   14.65             38317.2             55.0339        -1.22287e+06         4.42409e+07
   14.67             38271.2             54.9759         -1.2216e+06         4.42008e+07
   14.69             38226.5             54.9199        -1.22035e+06         4.41614e+07
   14.71               38183              54.866        -1.21913e+06         4.41228e+07
   14.73             38140.7             54.8142        -1.21794e+06         4.40849e+07
   14.75             38099.7             54.7644        -1.21678e+06         4.40477e+07
   14.77             38059.8             54.7166        -1.21564e+06         4.40113e+07
   14.79             38021.1             54.6709        -1.21453e+06         4.39756e+07
   14.81             37983.7             54.6272        -1.21345e+06         4.39406e+07
   14.83             37947.4             54.5855         -1.2124e+06         4.39064e+07
   14.85             37912.2             54.5457        -1.21137e+06         4.38728e+07
   14.87             37878.3             54.5079        -1.21037e+06         4.38399e+07
   14.89             37845.4              54.472        -1.20939e+06         4.38077e+07
   14.91             37813.8              54.438        -1.20844e+06         4.37762e+07
   14.93             37783.2             54.4059        -1.20752e+06         4.37454e+07
   14.95             37753.7             54.3757        -1.20662e+06         4.37152e+07
   14.97             37725.4             54.3473        -1.20575e+06         4.36858e+07
   14.99             37698.2             54.3208         -1.2049e+06         4.36569e+07
   15.01               37672             54.2961        -1.20408e+06         4.36287e+07
   15.03             37646.9             54.2732        -1.20328e+06         4.36012e+07
   15.05             37622.9             54.2521        -1.20251e+06         4.35742e+07
   15.07             37599.9             54.2327        -1.20176e+06          4.3548e+07
   15.09               37578             54.2151        -1.20103e+06         4.35223e+07
   15.11             37557.1             54.1992        -1.20033e+06         4.34973e+07
   15.13             37537.3              54.185        -1.19965e+06         4.34728e+07
   15.15             37518.5             54.1726          -1.199e+06          4.3449e+07
   15.17             37500.6             54.1618        -1.19837e+06         4.34257e+07
   15.19             37483.8             54.1526        -1.19776e+06         4.34031e+07
   15.21               37468             54.1451        -1.19717e+06          4.3381e+07
   15.23             37453.1             54.1391         -1.1966e+06         4.33595e+07
   15.25             37439.3             54.1348        -1.19606e+06         4.33386e+07
   15.27             37426.4             54.1321        -1.19554e+06         4.33183e+07
   15.29             37414.4             54.1309        -1.19504e+06         4.32985e+07
   15.31             37403.4             54.1312        -1.19456e+06         4.32792e+07
   15.33             37393.3             54.1331        -1.19411e+06         4.32605e+07
   15.35             37384.1             54.1364        -1.19367e+06         4.32424e+07
   15.37             37375.9             54.1413        -1.19326e+06         4.32247e+07
   15.39             37368.5             54.1476        -1.19286e+06         4.32076e+07
   15.41             37362.1             54.1553        -1.19249e+06          4.3191e+07
   15.43             37356.5             54.1645        -1.19213e+06          4.3175e+07
   15.45             37351.9              54.175         -1.1918e+06         4.31594e+07
   15.47             37348.1              54.187        -1.19149e+06         4.31443e+07
   15.49             37345.1             54.2003        -1.19119e+06         4.31298e+07
   15.51               37343             54.2149        -1.19092e+06         4.31157e+07
   15.53             37341.8             54.2309        -1.19066e+06         4.31021e+07
   15.55             37341.4             54.2481        -1.19042e+06          4.3089e+07
   15.57             37341.8             54.2667         -1.1902e+06         4.30763e+07
   15.59               37343             54.2865           -1.19e+06         4.30642e+07
   15.61             37345.1             54.3076        -1.18982e+06         4.30524e+07
   15.63             37347.9             54.3299        -1.18965e+06         4.30412e+07
   15.65             37351.6             54.3534        -1.18951e+06         4.30304e+07
   15.67               37356             54.3781        -1.18938e+06           4.302e+07
   15.69             37361.2             54.4039        -1.18927e+06           4.301e+07
   15.71             37367.1              54.431        -1.18917e+06         4.30005e+07
   15.73             37373.9             54.4591        -1.18909e+06         4.29914e+07
   15.75             37381.3             54.4884        -1.18903e+06         4.29828e+07
   15.77             37389.5             54.5187        -1.18899e+06         4.29745e+07
   15.79             37398.5             54.5502        -1.18896e+06         4.29666e+07
   15.81             37408.2             54.5827        -1.18895e+06         4.29592e+07
   15.83             37418.6             54.6162        -1.18895e+06         4.29521e+07
   15.85             37429.7             54.6508        -1.18897e+06         4.29455e+07
   15.87             37441.5             54.6863        -1.18901e+06         4.29392e+07
   15.89               37454             54.7228        -1.18906e+06         4.29333e+07
   15.91             37467.2             54.7603        -1.18912e+06         4.29278e+07
   15.93               37481             54.7988        -1.18921e+06         4.29226e+07
   15.95             37495.6             54.8382         -1.1893e+06         4.29178e+07
   15.97             37510.8             54.8784        -1.18941e+06         4.29133e+07
   15.99             37526.6             54.9196        -1.18954e+06         4.29093e+07
   16.01             37543.1             54.9617        -1.18968e+06         4.29055e+07
   16.03             37560.2             55.0046        -1.18983e+06         4.29021e+07
   16.05               37578             55.0483           -1.19e+06          4.2899e+07
   16.07             37596.4             55.0929        -1.19018e+06         4.28963e+07
   16.09             37615.4             55.1382        -1.19037e+06         4.28939e+07
   16.11               37635             55.1844        -1.19058e+06         4.28918e+07
   16.13             37655.3             55.2313         -1.1908e+06           4.289e+07
   16.15             37676.1              55.279        -1.19104e+06         4.28885e+07
   16.17             37697.5             55.3274        -1.19129e+06         4.28874e+07
   16.19             37719.5             55.3765        -1.19155e+06         4.28865e+07
   16.21               37742             55.4263        -1.19182e+06         4.28859e+07
   16.23             37765.2             55.4768         -1.1921e+06         4.28856e+07
   16.25             37788.9              55.528         -1.1924e+06         4.28856e+07
   16.27             37813.1             55.5798        -1.19271e+06         4.28859e+07
   16.29             37837.9             55.6322        -1.19303e+06         4.28865e+07
   16.31             37863.2             55.6853        -1.19336e+06         4.28873e+07
   16.33             37889.1             55.7389        -1.19371e+06         4.28884e+07
   16.35             37915.4             55.7932        -1.19406e+06         4.28897e+07
   16.37             37942.3              55.848        -1.19443e+06         4.28913e+07
   16.39             37969.7             55.9033        -1.19481e+06         4.28932e+07
   16.41             37997.6             55.9592        -1.19519e+06         4.28953e+07
   16.43             38026.1             56.0156        -1.19559e+06         4.28976e+07
   16.45               38055             56.0725          -1.196e+06         4.29002e+07
   16.47             38084.3             56.1299        -1.19642e+06          4.2903e+07
   16.49             38114.2             56.1877        -1.19685e+06         4.29061e+07
   16.51             38144.5             56.2461        -1.19729e+06         4.29094e+07
   16.53             38175.3             56.3048        -1.19774e+06         4.29128e+07
   16.55             38206.6              56.364         -1.1982e+06         4.29165e+07
   16.57             38238.3             56.4236        -1.19867e+06         4.29205e+07
   16.59             38270.5             56.4836        -1.19915e+06         4.29246e+07
   16.61             38303.1             56.5439        -1.19964e+06         4.29289e+07
   16.63             38336.1             56.6047        -1.20014e+06         4.29334e+07
   16.65             38369.5             56.6657        -1.20064e+06         4.29381e+07
   16.67             38403.4             56.7272        -1.20116e+06          4.2943e+07
   16.69             38437.7             56.7889        -1.20168e+06         4.29481e+07
   16.71             38472.4             56.8509        -1.20222e+06         4.29534e+07
   16.73             38507.5             56.9133        -1.20276e+06         4.29588e+07
   16.75               38543             56.9759        -1.20331e+06         4.29644e+07
   16.77             38578.9             57.0388        -1.20386e+06         4.29702e+07
   16.79             38615.2             57.1019        -1.20443e+06         4.29762e+07
   16.81             38651.8             57.1653          -1.205e+06         4.29823e+07
   16.83             38688.9             57.2289        -1.20558e+06         4.29885e+07
   16.85             38726.3             57.2927        -1.20617e+06          4.2995e+07
   16.87               38764             57.3567        -1.20677e+06         4.30015e+07
   16.89             38802.1             57.4209        -1.20737e+06         4.30083e+07
   16.91             38840.6             57.4853        -1.20798e+06         4.30151e+07
   16.93             38879.4             57.5498         -1.2086e+06         4.30221e+07
   16.95             38918.6             57.6145        -1.20922e+06         4.30292e+07
   16.97             38958.1             57.6793        -1.20985e+06         4.30365e+07
   16.99             38997.9             57.7442        -1.21049e+06         4.30439e+07
   17.01               39038             57.8092        -1.21114e+06         4.30514e+07
   17.03             39078.5             57.8744        -1.21179e+06         4.30591e+07
   17.05             39119.3             57.9396        -1.21245e+06         4.30668e+07
   17.07             39160.3             58.0049        -1.21311e+06         4.30747e+07
   17.09             39201.7             58.0703        -1.21378e+06         4.30826e+07
   17.11             39243.4             58.1357        -1.21445e+06         4.30907e+07
   17.13             39285.4             58.2011        -1.21514e+06         4.30989e+07
   17.15             39327.6             58.2666        -1.21582e+06         4.31072e+07
   17.17             39370.1             58.3321        -1.21652e+06         4.31156e+07
   17.19               39413             58.3976        -1.21721e+06          4.3124e+07
   17.21               39456             58.4631        -1.21792e+06         4.31326e+07
   17.23             39499.4             58.5286        -1.21862e+06         4.31413e+07
   17.25               39543              58.594        -1.21934e+06           4.315e+07
   17.27             39586.9             58.6594        -1.22006e+06         4.31588e+07
   17.29               39631             58.7248        -1.22078e+06         4.31677e+07
   17.31             39675.3             58.7901        -1.22151e+06         4.31766e+07
   17.33             39719.9             58.8553        -1.22224e+06         4.31857e+07
   17.35             39764.8             58.9205        -1.22298e+06         4.31948e+07
   17.37             39809.9             58.9855        -1.22372e+06          4.3204e+07
   17.39             39855.2             59.0505        -1.22447e+06         4.32132e+07
   17.41             39900.7             59.1154        -1.22522e+06         4.32225e+07
   17.43             39946.4             59.1801        -1.22597e+06         4.32318e+07
   17.45             39992.4             59.2447        -1.22673e+06         4.32412e+07
   17.47             40038.5             59.3092        -1.22749e+06         4.32507e+07
   17.49             40084.9             59.3735        -1.22826e+06         4.32602e+07
   17.51             40131.4             59.4376        -1.22903e+06         4.32697e+07
   17.53             40178.2             59.5016         -1.2298e+06         4.32793e+07
   17.55             40225.1             59.5655        -1.23058e+06         4.32889e+07
   17.57             40272.3             59.6291        -1.23136e+06         4.32986e+07
   17.59             40319.6             59.6926        -1.23214e+06         4.33083e+07
   17.61               40367             59.7558        -1.23293e+06          4.3318e+07
   17.63             40414.7             59.8189        -1.23372e+06         4.33277e+07
   17.65             40462.5             59.8817        -1.23451e+06         4.33375e+07
   17.67             40510.5             59.9443         -1.2353e+06         4.33473e+07
   17.69             40558.6             60.0067         -1.2361e+06         4.33572e+07
   17.71             40606.9             60.0688         -1.2369e+06          4.3367e+07
   17.73             40655.4             60.1307        -1.23771e+06         4.33769e+07
   17.75             40703.9             60.1923        -1.23851e+06         4.33867e+07
   17.77             40752.7             60.2536        -1.23932e+06         4.33966e+07
   17.79             40801.5             60.3147        -1.24013e+06         4.34065e+07
   17.81             40850.5             60.3755        -1.24094e+06         4.34164e+07
   17.83             40899.6              60.436        -1.24176e+06         4.34263e+07
   17.85             40948.9             60.4963        -1.24257e+06         4.34362e+07
   17.87             40998.3             60.5562        -1.24339e+06         4.34461e+07
   17.89             41047.7             60.6158        -1.24421e+06          4.3456e+07
   17.91             41097.3             60.6751        -1.24503e+06         4.34659e+07
   17.93               41147             60.7341        -1.24586e+06         4.34758e+07
   17.95             41196.8             60.7927        -1.24668e+06         4.34857e+07
   17.97             41246.7              60.851        -1.24751e+06         4.34956e+07
   17.99             41296.7              60.909        -1.24834e+06         4.35054e+07
   18.01             41346.8             60.9667        -1.24917e+06         4.35153e+07
   18.03             41396.9             61.0239           -1.25e+06         4.35251e+07
   18.05             41447.2             61.0808        -1.25083e+06         4.35349e+07
   18.07             41497.5             61.1374        -1.25166e+06         4.35447e+07
   18.09             41547.9             61.1936        -1.25249e+06         4.35544e+07
   18.11             41598.4             61.2494        -1.25333e+06         4.35642e+07
   18.13             41648.9             61.3048        -1.25416e+06         4.35739e+07
   18.15             41699.5             61.3598          -1.255e+06         4.35836e+07
   18.17             41750.2             61.4145        -1.25584e+06         4.35932e+07
   18.19             41800.9             61.4687        -1.25667e+06         4.36028e+07
   18.21             41851.6             61.5226        -1.25751e+06         4.36124e+07
   18.23             41902.4              61.576        -1.25835e+06         4.36219e+07
   18.25             41953.3              61.629        -1.25918e+06         4.36314e+07
   18.27             42004.2             61.6816        -1.26002e+06         4.36408e+07
   18.29             42055.1             61.7338        -1.26086e+06         4.36503e+07
   18.31               42106             61.7855         -1.2617e+06         4.36596e+07
   18.33               42157             61.8368        -1.26254e+06         4.36689e+07
   18.35               42208             61.8877        -1.26337e+06         4.36782e+07
   18.37               42259             61.9381        -1.26421e+06         4.36874e+07
   18.39               42310             61.9881        -1.26505e+06         4.36966e+07
   18.41             42361.1             62.0376        -1.26588e+06         4.37057e+07
   18.43             42412.1             62.0867        -1.26672e+06         4.37147e+07
   18.45             42463.2             62.1353        -1.26756e+06         4.37237e+07
   18.47             42514.2             62.1835        -1.26839e+06         4.37327e+07
   18.49             42565.3             62.2312        -1.26923e+06         4.37415e+07
   18.51             42616.3             62.2784        -1.27006e+06         4.37503e+07
   18.53             42667.3             62.3251        -1.27089e+06         4.37591e+07
   18.55             42718.3             62.3714        -1.27172e+06         4.37678e+07
   18.57             42769.3             62.4172        -1.27255e+06         4.37764e+07
   18.59             42820.3             62.4625        -1.27338e+06         4.37849e+07
   18.61             42871.2             62.5073        -1.27421e+06         4.37934e+07
   18.63             42922.1             62.5516        -1.27504e+06         4.38018e+07
   18.65               42973             62.5955        -1.27586e+06         4.38101e+07
   18.67             43023.8             62.6388        -1.27669e+06         4.38184e+07
   18.69             43074.6             62.6816        -1.27751e+06         4.38265e+07
   18.71             43125.3             62.7239        -1.27833e+06         4.38346e+07
   18.73               43176             62.7657        -1.27915e+06         4.38426e+07
   18.75             43226.7             62.8071        -1.27997e+06         4.38506e+07
   18.77             43277.2             62.8479        -1.28079e+06         4.38584e+07
   18.79             43327.8             62.8881         -1.2816e+06         4.38662e+07
   18.81             43378.2             62.9279        -1.28241e+06         4.38739e+07
   18.83             43428.6             62.9671        -1.28322e+06         4.38814e+07
   18.85             43478.9             63.0059        -1.28403e+06         4.38889e+07
   18.87             43529.1             63.0441        -1.28483e+06         4.38964e+07
   18.89             43579.3             63.0817        -1.28564e+06         4.39037e+07
   18.91             43629.4             63.1189        -1.28644e+06         4.39109e+07
   18.93             43679.3             63.1555        -1.28724e+06          4.3918e+07
   18.95             43729.2             63.1916        -1.28803e+06          4.3925e+07
   18.97               43779             63.2271        -1.28883e+06          4.3932e+07
   18.99             43828.7             63.2622        -1.28962e+06         4.39388e+07
   19.01             43878.3             63.2966        -1.29041e+06         4.39455e+07
   19.03             43927.8             63.3306        -1.29119e+06         4.39522e+07
   19.05             43977.2              63.364        -1.29198e+06         4.39587e+07
   19.07             44026.4             63.3968        -1.29275e+06         4.39651e+07
   19.09             44075.5             63.4291        -1.29353e+06         4.39714e+07
   19.11             44124.6             63.4609        -1.29431e+06         4.39776e+07
   19.13             44173.5             63.4921        -1.29508e+06         4.39837e+07
   19.15             44222.2             63.5228        -1.29584e+06         4.39897e+07
   19.17             44270.9             63.5529        -1.29661e+06         4.39956e+07
   19.19             44319.3             63.5825        -1.29737e+06         4.40014e+07
   19.21             44367.7             63.6115        -1.29812e+06          4.4007e+07
   19.23             44415.9               63.64        -1.29888e+06         4.40125e+07
   19.25               44464             63.6679        -1.29963e+06         4.40179e+07
   19.27             44511.9             63.6952        -1.30037e+06         4.40232e+07
   19.29             44559.6              63.722        -1.30112e+06         4.40284e+07
   19.31             44607.2             63.7483        -1.30185e+06         4.40335e+07
   19.33             44654.6              63.774        -1.30259e+06         4.40384e+07
   19.35             44701.9             63.7991        -1.30332e+06         4.40432e+07
   19.37               44749             63.8237        -1.30405e+06         4.40479e+07
   19.39             44795.9             63.8477        -1.30477e+06         4.40525e+07
   19.41             44842.6             63.8712        -1.30549e+06         4.40569e+07
   19.43             44889.2             63.8941         -1.3062e+06         4.40612e+07
   19.45             44935.6             63.9164        -1.30691e+06         4.40654e+07
   19.47             44981.7             63.9382        -1.30762e+06         4.40694e+07
   19.49             45027.7             63.9594        -1.30832e+06         4.40733e+07
   19.51             45073.5             63.9801        -1.30901e+06         4.40771e+07
   19.53             45119.1             64.0002        -1.30971e+06         4.40807e+07
   19.55             45164.5             64.0198        -1.31039e+06         4.40842e+07
   19.57             45209.6             64.0387        -1.31107e+06         4.40876e+07
   19.59             45254.6             64.0572        -1.31175e+06         4.40908e+07
   19.61             45299.3              64.075        -1.31242e+06         4.40939e+07
   19.63             45343.8             64.0923        -1.31309e+06         4.40968e+07
   19.65             45388.1             64.1091        -1.31375e+06         4.40996e+07
   19.67             45432.2             64.1253        -1.31441e+06         4.41022e+07
   19.69               45476             64.1409        -1.31506e+06         4.41047e+07
   19.71             45519.6             64.1559        -1.31571e+06         4.41071e+07
   19.73               45563             64.1704        -1.31635e+06         4.41093e+07
   19.75             45606.1             64.1844        -1.31698e+06         4.41114e+07
   19.77               45649             64.1978        -1.31761e+06         4.41133e+07
   19.79             45691.6             64.2106        -1.31824e+06          4.4115e+07
   19.81             45733.9             64.2229        -1.31886e+06         4.41166e+07
   19.83               45776             64.2346        -1.31947e+06         4.41181e+07
   19.85             45817.9             64.2458        -1.32008e+06         4.41193e+07
   19.87             45859.4             64.2564        -1.32068e+06         4.41205e+07
   19.89             45900.7             64.2664        -1.32127e+06         4.41214e+07
   19.91             45941.7             64.2759        -1.32186e+06         4.41223e+07
   19.93             45982.5             64.2848        -1.32244e+06         4.41229e+07
   19.95               46023             64.2932        -1.32302e+06         4.41234e+07
   19.97             46063.1             64.3011        -1.32359e+06         4.41237e+07
   19.99               46103             64.3084        -1.32415e+06         4.41239e+07
